timestamp,accel_x,accel_y,accel_z,gyro_x,gyro_y,gyro_z
0.743,89,948,-219,54600,-75390,83230
0.743,89,947,-219,1960,-4480,-1540
0.743,90,946,-220,280,-840,-560
0.743,88,947,-221,280,-770,-630
0.743,89,946,-221,350,-770,-630
0.743,89,947,-221,350,-770,-630
0.743,89,947,-222,350,-770,-630
0.743,89,947,-221,350,-770,-630
0.743,89,947,-221,280,-770,-630
0.743,89,947,-221,280,-770,-560
0.743,89,947,-221,420,-700,-630
0.743,89,947,-221,420,-770,-560
0.743,89,947,-221,420,-700,-490
0.743,89,947,-222,350,-770,-560
0.743,89,947,-222,420,-770,-560
0.743,89,947,-222,350,-770,-630
0.743,88,946,-222,350,-770,-630
0.743,89,946,-221,420,-770,-630
0.743,89,947,-222,420,-840,-630
0.743,89,947,-221,350,-770,-630
0.925,90,947,-222,420,-770,-560
0.925,89,947,-223,350,-770,-560
0.925,88,947,-221,420,-840,-630
0.925,88,947,-222,420,-700,-630
0.925,89,946,-222,420,-770,-560
0.925,89,947,-221,350,-770,-490
0.925,88,947,-222,420,-700,-560
0.925,89,947,-221,420,-770,-560
0.925,88,947,-221,350,-840,-560
0.925,89,946,-222,350,-700,-560
0.925,89,947,-222,350,-700,-560
0.925,89,948,-220,350,-700,-630
0.925,87,947,-221,350,-700,-560
0.925,89,947,-221,350,-770,-490
0.925,89,946,-220,350,-770,-560
0.925,89,948,-220,350,-770,-560
0.925,89,947,-221,350,-840,-560
0.925,89,947,-220,350,-770,-630
0.925,88,947,-220,350,-770,-630
0.925,89,947,-220,420,-770,-560
1.107,89,947,-220,420,-770,-560
1.107,89,947,-219,350,-770,-560
1.107,88,947,-220,350,-840,-630
1.107,88,947,-220,350,-770,-560
1.107,88,947,-219,420,-840,-560
1.107,89,946,-220,420,-770,-560
1.107,88,947,-220,420,-770,-630
1.107,88,948,-220,280,-700,-630
1.107,89,947,-219,350,-770,-630
1.107,89,947,-220,350,-770,-560
1.107,89,948,-220,350,-770,-560
1.107,89,948,-220,350,-770,-560
1.107,89,946,-219,350,-770,-630
1.107,89,947,-220,350,-770,-630
1.107,87,947,-220,420,-840,-630
1.107,88,947,-219,420,-770,-560
1.107,89,947,-219,420,-700,-560
1.107,89,946,-220,350,-770,-560
1.107,90,947,-219,350,-840,-630
1.107,89,948,-219,420,-840,-630
1.289,88,947,-219,280,-840,-630
1.289,88,947,-219,350,-840,-630
1.289,88,947,-219,350,-770,-490
1.289,88,948,-219,420,-700,-490
1.289,89,947,-219,420,-770,-560
1.289,88,947,-220,420,-770,-560
1.289,89,947,-219,420,-770,-560
1.289,88,947,-220,350,-770,-560
1.289,88,946,-219,420,-770,-630
1.289,88,947,-219,350,-840,-560
1.289,88,947,-219,350,-770,-560
1.289,89,948,-220,350,-770,-560
1.289,90,947,-219,420,-770,-630
1.289,89,947,-220,420,-770,-630
1.289,88,947,-219,350,-770,-560
1.289,87,947,-219,350,-700,-560
1.289,87,947,-220,280,-770,-560
1.289,89,947,-219,350,-770,-560
1.289,89,947,-219,420,-840,-630
1.289,91,947,-219,350,-840,-630
1.471,89,947,-219,350,-840,-560
1.471,88,948,-219,350,-770,-560
1.471,88,947,-219,350,-840,-560
1.471,88,947,-219,420,-910,-560
1.471,89,947,-219,350,-770,-560
1.471,90,947,-220,420,-770,-560
1.471,88,947,-219,350,-700,-560
1.471,90,947,-219,350,-770,-560
1.471,88,947,-220,280,-770,-630
1.471,89,947,-218,420,-770,-560
1.471,89,947,-219,490,-770,-560
1.471,88,946,-219,350,-840,-560
1.471,89,948,-219,350,-700,-490
1.471,88,948,-218,350,-700,-630
1.471,88,947,-218,420,-770,-560
1.471,88,946,-219,420,-700,-630
1.471,89,947,-220,350,-770,-560
1.471,90,947,-218,350,-770,-560
1.471,89,947,-218,420,-770,-630
1.471,88,947,-219,490,-770,-560
1.653,88,947,-218,420,-770,-630
1.653,88,948,-218,420,-770,-560
1.653,89,947,-218,420,-770,-630
1.653,89,947,-219,350,-770,-560
1.653,89,947,-218,420,-770,-560
1.653,89,948,-218,420,-770,-630
1.653,89,947,-218,420,-770,-630
1.653,88,947,-219,420,-770,-630
1.653,90,947,-218,350,-770,-560
1.653,90,947,-218,420,-770,-630
1.653,89,947,-218,420,-770,-560
1.653,89,947,-218,420,-770,-490
1.653,88,946,-219,420,-770,-560
1.653,88,947,-218,350,-840,-630
1.653,89,947,-218,350,-770,-630
1.653,89,947,-218,350,-770,-560
1.653,90,947,-218,420,-770,-560
1.653,89,947,-218,490,-770,-630
1.653,88,948,-218,420,-770,-630
1.653,89,947,-217,350,-770,-560
1.834,87,946,-218,350,-840,-560
1.834,88,947,-217,350,-770,-560
1.834,88,946,-218,350,-770,-630
1.834,88,946,-218,420,-770,-630
1.834,90,947,-218,350,-700,-630
1.834,88,947,-218,420,-840,-630
1.834,88,948,-218,420,-840,-560
1.834,89,947,-218,350,-770,-560
1.834,89,946,-218,420,-770,-560
1.834,90,947,-218,350,-770,-560
1.834,89,947,-218,420,-700,-560
1.834,89,947,-218,420,-700,-630
1.834,90,947,-217,350,-700,-560
1.834,88,947,-219,350,-840,-560
1.834,88,947,-219,350,-770,-560
1.834,88,947,-218,420,-700,-490
1.834,89,947,-218,350,-770,-490
1.834,89,948,-219,350,-770,-560
1.834,89,947,-217,350,-770,-630
1.834,90,947,-217,350,-770,-560
2.16,89,947,-218,350,-840,-560
2.16,89,947,-218,420,-840,-630
2.16,88,947,-218,420,-840,-630
2.16,87,946,-218,350,-770,-560
2.16,89,947,-219,350,-770,-560
2.16,88,947,-218,350,-700,-560
2.16,89,948,-218,420,-770,-560
2.16,90,948,-217,350,-770,-630
2.16,88,947,-218,350,-770,-560
2.16,89,947,-218,420,-770,-560
2.16,88,946,-218,420,-770,-630
2.16,89,947,-217,350,-770,-630
2.16,89,947,-219,420,-840,-560
2.16,89,948,-219,350,-770,-560
2.16,89,947,-217,350,-770,-630
2.16,89,947,-218,420,-770,-560
2.16,89,947,-218,420,-840,-630
2.16,89,947,-217,420,-770,-630
2.16,88,947,-218,350,-770,-630
2.16,88,947,-218,350,-770,-630
2.198,88,946,-218,350,-770,-560
2.198,89,948,-218,350,-770,-560
2.198,89,947,-217,420,-770,-630
2.198,89,947,-217,350,-770,-630
2.198,89,947,-218,350,-770,-560
2.198,88,947,-218,350,-770,-560
2.198,89,947,-218,420,-770,-630
2.198,88,947,-218,350,-770,-560
2.198,89,947,-218,420,-770,-630
2.198,90,947,-219,420,-770,-630
2.198,88,948,-218,350,-770,-630
2.198,88,948,-217,420,-770,-560
2.198,87,947,-218,350,-770,-560
2.198,89,947,-218,420,-700,-490
2.198,89,947,-217,350,-770,-560
2.198,90,947,-217,350,-840,-560
2.198,91,947,-218,350,-840,-560
2.198,89,947,-218,350,-770,-560
2.198,88,947,-218,350,-770,-560
2.198,88,947,-217,350,-700,-560
2.380,89,947,-218,350,-770,-630
2.380,88,947,-217,350,-770,-560
2.380,87,947,-218,350,-770,-560
2.380,88,947,-218,350,-770,-560
2.380,90,948,-217,350,-840,-560
2.380,89,947,-218,350,-700,-630
2.380,89,947,-217,350,-770,-560
2.380,89,947,-217,350,-770,-560
2.380,89,946,-218,420,-770,-560
2.380,90,947,-218,420,-840,-560
2.380,88,947,-218,420,-840,-630
2.380,89,947,-217,420,-840,-560
2.380,89,947,-218,350,-840,-560
2.380,88,946,-218,350,-770,-560
2.380,89,947,-218,350,-770,-560
2.380,88,947,-217,350,-770,-560
2.380,89,947,-217,350,-770,-560
2.380,90,948,-217,350,-700,-560
2.380,89,948,-217,350,-840,-560
2.380,89,947,-218,490,-770,-560
2.562,89,947,-218,420,-770,-560
2.562,88,947,-217,420,-840,-560
2.562,89,948,-217,420,-770,-560
2.562,89,947,-218,350,-770,-560
2.562,89,947,-217,350,-840,-560
2.562,89,947,-218,420,-770,-630
2.562,89,947,-218,420,-700,-560
2.562,89,947,-218,350,-840,-560
2.562,88,947,-218,350,-840,-630
2.562,88,947,-217,420,-770,-630
2.562,89,947,-218,420,-770,-630
2.562,89,948,-218,420,-840,-560
2.562,89,947,-218,350,-770,-630
2.562,88,948,-217,280,-770,-560
2.562,89,948,-218,350,-770,-560
2.562,88,947,-218,350,-770,-630
2.562,89,947,-218,350,-700,-560
2.562,88,946,-218,420,-770,-560
2.562,88,947,-218,420,-770,-560
2.562,89,947,-218,420,-700,-490
2.743,88,947,-218,280,-770,-560
2.743,89,947,-217,420,-840,-560
2.743,89,948,-217,420,-840,-560
2.743,87,948,-217,350,-840,-560
2.743,89,947,-218,420,-840,-560
2.743,89,946,-219,420,-700,-630
2.743,89,947,-218,420,-700,-560
2.743,89,947,-217,420,-700,-560
2.743,88,946,-217,280,-770,-630
2.743,89,947,-218,350,-840,-560
2.743,88,948,-217,350,-770,-560
2.743,88,948,-218,350,-770,-560
2.743,89,948,-218,420,-770,-560
2.743,89,947,-218,420,-770,-560
2.743,90,947,-217,350,-770,-490
2.743,90,947,-218,350,-770,-490
2.743,90,948,-218,280,-770,-560
2.743,88,947,-217,350,-700,-560
2.743,89,947,-218,420,-770,-560
2.743,88,947,-217,420,-770,-560
2.924,88,947,-217,350,-770,-560
2.924,88,946,-218,420,-770,-560
2.924,88,947,-218,420,-700,-560
2.924,88,948,-218,420,-700,-560
2.924,89,948,-216,420,-770,-560
2.924,89,947,-217,420,-840,-560
2.924,88,947,-218,350,-770,-560
2.924,88,947,-219,350,-770,-560
2.924,88,947,-218,350,-770,-560
2.924,88,948,-217,420,-770,-560
2.924,89,948,-217,350,-770,-560
2.924,89,948,-217,420,-770,-560
2.924,89,947,-218,350,-700,-560
2.924,89,947,-218,350,-770,-560
2.924,89,946,-218,280,-770,-560
2.924,89,948,-218,350,-840,-630
2.924,88,947,-217,350,-770,-630
2.924,88,947,-217,350,-770,-560
2.924,90,947,-218,420,-840,-560
2.924,88,947,-218,420,-770,-630
3.106,89,947,-217,350,-770,-560
3.106,88,947,-218,420,-770,-630
3.106,88,947,-218,420,-770,-560
3.106,89,947,-217,350,-770,-560
3.106,88,946,-218,350,-840,-560
3.106,90,948,-218,350,-770,-490
3.106,88,947,-218,420,-770,-490
3.106,89,947,-218,420,-840,-560
3.106,89,948,-218,420,-770,-630
3.106,87,948,-218,420,-770,-630
3.106,88,948,-218,350,-770,-560
3.106,88,946,-218,280,-770,-560
3.106,90,947,-218,280,-770,-560
3.106,90,947,-218,420,-770,-560
3.106,89,948,-218,420,-770,-630
3.106,89,947,-218,420,-770,-630
3.106,89,947,-218,350,-770,-560
3.106,89,948,-218,280,-770,-630
3.106,88,948,-218,420,-840,-630
3.106,88,946,-218,420,-770,-560
3.288,88,947,-218,350,-770,-560
3.288,88,947,-218,420,-770,-630
3.288,88,947,-218,490,-770,-630
3.288,89,947,-218,350,-770,-560
3.288,89,947,-219,350,-840,-630
3.288,89,947,-219,420,-770,-630
3.288,89,947,-217,420,-770,-560
3.288,88,947,-218,420,-770,-560
3.288,89,947,-218,280,-770,-490
3.288,88,947,-218,280,-770,-560
3.288,88,947,-218,350,-770,-560
3.288,88,947,-219,420,-840,-560
3.288,88,947,-219,420,-700,-490
3.288,89,948,-218,350,-770,-560
3.288,89,947,-218,490,-770,-630
3.288,89,947,-219,350,-840,-560
3.288,89,948,-219,350,-840,-560
3.288,88,948,-219,350,-770,-630
3.288,88,948,-219,420,-770,-630
3.288,89,947,-219,420,-770,-560
3.470,89,947,-219,420,-770,-560
3.470,89,947,-218,350,-770,-560
3.470,89,947,-219,420,-770,-630
3.470,89,948,-218,420,-840,-560
3.470,90,947,-218,420,-770,-630
3.470,88,947,-218,350,-770,-630
3.470,88,947,-219,420,-770,-560
3.470,89,947,-220,350,-770,-560
3.470,88,947,-219,420,-700,-560
3.470,90,949,-218,350,-700,-490
3.470,90,947,-218,420,-770,-560
3.470,88,947,-219,420,-770,-560
3.470,90,947,-219,350,-770,-560
3.470,87,947,-218,280,-770,-560
3.470,91,947,-219,350,-770,-560
3.470,88,947,-219,350,-840,-630
3.470,88,947,-219,280,-770,-560
3.470,90,948,-219,420,-700,-560
3.470,88,946,-218,420,-770,-630
3.470,90,948,-218,350,-840,-560
3.651,89,947,-218,350,-840,-630
3.651,88,947,-218,420,-770,-560
3.651,89,947,-219,350,-840,-560
3.651,87,946,-219,350,-840,-560
3.651,89,947,-219,350,-770,-560
3.651,89,946,-219,420,-770,-490
3.651,87,947,-219,420,-770,-560
3.651,89,947,-218,420,-770,-630
3.651,87,946,-219,420,-840,-630
3.651,89,948,-219,350,-770,-560
3.651,87,948,-219,420,-770,-630
3.651,88,947,-219,280,-770,-560
3.651,90,947,-219,280,-840,-560
3.651,89,947,-219,350,-770,-630
3.651,88,948,-219,420,-840,-560
3.651,88,948,-219,420,-770,-560
3.651,88,946,-220,420,-770,-560
3.651,89,946,-218,350,-840,-560
3.651,87,947,-219,350,-840,-560
3.651,89,948,-219,420,-840,-490
3.832,90,947,-219,420,-770,-560
3.832,87,946,-219,490,-770,-700
3.832,90,948,-218,350,-840,-630
3.832,88,947,-219,280,-770,-560
3.832,88,947,-218,350,-840,-630
3.832,88,947,-219,280,-770,-630
3.832,88,947,-219,350,-770,-560
3.832,91,947,-218,350,-700,-560
3.832,89,947,-218,350,-770,-560
3.832,90,948,-218,350,-770,-560
3.832,88,947,-219,350,-770,-560
3.832,88,947,-219,350,-770,-630
3.832,89,947,-220,280,-840,-560
3.832,88,947,-219,350,-840,-560
3.832,90,948,-218,350,-700,-630
3.832,89,947,-219,350,-630,-630
3.832,88,947,-219,350,-770,-630
3.832,88,947,-218,420,-840,-560
3.832,89,947,-218,350,-770,-560
3.832,89,947,-219,350,-770,-560
4.14,89,948,-219,350,-770,-560
4.14,89,947,-219,350,-770,-560
4.14,89,947,-219,280,-840,-560
4.14,90,948,-219,420,-840,-560
4.14,88,947,-219,350,-840,-630
4.14,89,947,-219,350,-770,-560
4.14,89,947,-219,350,-770,-560
4.14,88,947,-219,420,-840,-560
4.14,89,947,-219,420,-770,-560
4.14,89,946,-218,420,-700,-630
4.14,90,947,-219,350,-770,-560
4.14,88,948,-219,420,-840,-560
4.14,88,947,-219,280,-840,-560
4.14,89,946,-220,420,-840,-560
4.14,89,947,-220,350,-770,-560
4.14,89,947,-220,350,-770,-560
4.14,89,947,-220,420,-770,-560
4.14,88,947,-219,280,-700,-560
4.14,88,946,-219,350,-770,-560
4.14,89,947,-219,350,-840,-560
4.196,89,946,-219,350,-770,-560
4.196,88,948,-219,350,-770,-560
4.196,90,947,-219,420,-770,-560
4.196,89,947,-219,350,-840,-560
4.196,88,947,-218,350,-770,-560
4.196,88,946,-218,350,-840,-560
4.196,88,947,-219,420,-840,-560
4.196,90,947,-218,350,-770,-630
4.196,89,948,-218,350,-700,-560
4.196,90,947,-218,280,-700,-560
4.196,90,947,-218,350,-770,-630
4.196,88,946,-218,420,-770,-630
4.196,89,947,-218,350,-840,-630
4.196,88,947,-220,350,-770,-490
4.196,88,947,-219,420,-770,-560
4.196,89,948,-219,420,-840,-560
4.196,89,947,-221,350,-770,-630
4.196,89,947,-219,350,-770,-560
4.196,89,947,-220,420,-770,-560
4.196,89,947,-220,420,-770,-630
4.378,88,947,-220,350,-770,-560
4.378,89,947,-220,420,-770,-630
4.378,89,947,-219,420,-770,-560
4.378,89,947,-220,280,-700,-560
4.378,89,947,-220,350,-700,-560
4.378,88,948,-219,350,-770,-560
4.378,88,947,-218,350,-770,-560
4.378,89,947,-218,350,-840,-560
4.378,88,946,-219,350,-840,-490
4.378,89,947,-218,420,-770,-560
4.378,88,947,-218,420,-770,-630
4.378,90,947,-218,280,-770,-490
4.378,89,947,-218,350,-840,-630
4.378,88,947,-218,350,-840,-560
4.378,89,948,-218,350,-770,-630
4.378,88,947,-218,350,-770,-630
4.378,90,947,-219,350,-840,-630
4.378,88,947,-220,280,-770,-630
4.378,89,947,-219,280,-770,-560
4.378,90,947,-218,350,-700,-560
4.560,90,947,-219,350,-770,-560
4.560,90,946,-219,420,-770,-630
4.560,89,947,-218,420,-840,-630
4.560,87,947,-219,420,-840,-560
4.560,88,947,-219,280,-840,-560
4.560,89,948,-218,350,-770,-560
4.560,88,946,-219,350,-770,-560
4.560,90,948,-219,350,-770,-560
4.560,88,948,-219,420,-840,-560
4.560,88,947,-219,420,-770,-630
4.560,89,947,-219,420,-840,-560
4.560,89,947,-218,490,-840,-490
4.560,90,947,-218,350,-840,-560
4.560,88,947,-219,350,-770,-560
4.560,89,947,-218,350,-700,-560
4.560,89,947,-219,420,-770,-560
4.560,88,947,-219,420,-840,-630
4.560,88,947,-218,350,-840,-560
4.560,88,946,-218,350,-770,-560
4.560,89,947,-219,350,-840,-560
4.741,88,947,-220,350,-770,-630
4.741,89,948,-220,350,-770,-630
4.741,89,947,-220,420,-840,-560
4.741,88,947,-220,350,-840,-560
4.741,90,948,-219,350,-770,-560
4.741,89,946,-220,280,-770,-630
4.741,89,947,-219,350,-770,-560
4.741,89,947,-219,350,-840,-560
4.741,88,946,-220,420,-770,-630
4.741,89,947,-220,350,-770,-630
4.741,88,947,-219,420,-700,-560
4.741,88,946,-220,350,-770,-630
4.741,89,947,-219,420,-770,-560
4.741,89,948,-219,350,-770,-630
4.741,90,947,-219,350,-770,-560
4.741,89,947,-220,420,-770,-630
4.741,89,947,-219,350,-770,-630
4.741,90,948,-219,280,-770,-630
4.741,89,948,-219,420,-770,-560
4.741,89,946,-219,350,-770,-560
4.923,88,947,-220,420,-700,-560
4.923,88,946,-219,350,-700,-560
4.923,90,947,-219,490,-840,-560
4.923,89,946,-218,350,-770,-560
4.923,89,947,-219,350,-770,-560
4.923,90,947,-218,420,-840,-630
4.923,88,947,-218,420,-840,-700
4.923,88,947,-218,350,-770,-560
4.923,88,947,-218,420,-770,-560
4.923,89,947,-219,420,-840,-560
4.923,90,947,-219,490,-840,-560
4.923,88,948,-219,420,-770,-560
4.923,90,948,-219,350,-770,-630
4.923,89,947,-218,350,-770,-630
4.923,89,947,-219,420,-770,-560
4.923,89,947,-218,350,-770,-560
4.923,88,947,-219,350,-770,-560
4.923,89,947,-219,420,-840,-560
4.923,89,948,-219,350,-700,-630
4.923,89,948,-218,350,-770,-630
5.105,90,947,-219,420,-770,-630
5.105,87,947,-218,420,-770,-700
5.105,88,946,-219,420,-770,-630
5.105,88,947,-218,350,-840,-630
5.105,88,947,-219,420,-700,-630
5.105,89,947,-218,420,-770,-560
5.105,90,947,-219,350,-770,-560
5.105,89,948,-218,350,-770,-560
5.105,89,947,-218,420,-840,-560
5.105,88,947,-219,350,-840,-630
5.105,89,947,-219,420,-770,-560
5.105,88,946,-218,350,-770,-560
5.105,89,946,-218,350,-770,-560
5.105,88,947,-218,350,-770,-560
5.105,89,947,-218,420,-770,-560
5.105,91,947,-218,350,-700,-560
5.105,89,948,-218,420,-770,-560
5.105,90,948,-219,350,-770,-630
5.105,88,948,-218,350,-840,-700
5.105,87,947,-218,350,-840,-630
5.287,89,947,-218,350,-770,-560
5.287,89,946,-218,420,-700,-560
5.287,90,947,-218,420,-770,-560
5.287,89,947,-217,350,-770,-630
5.287,89,946,-219,280,-840,-630
5.287,90,947,-218,350,-770,-630
5.287,88,947,-218,420,-770,-630
5.287,89,946,-217,420,-840,-560
5.287,89,946,-218,420,-770,-490
5.287,88,947,-219,420,-770,-630
5.287,89,948,-218,420,-770,-560
5.287,89,947,-218,420,-770,-560
5.287,89,948,-219,420,-770,-560
5.287,89,947,-219,420,-770,-630
5.287,89,947,-219,420,-770,-560
5.287,88,947,-219,420,-840,-560
5.287,88,946,-218,350,-770,-630
5.287,89,947,-219,420,-770,-560
5.287,89,947,-218,420,-770,-560
5.287,91,949,-218,350,-770,-560
5.469,90,948,-218,420,-770,-560
5.469,88,947,-218,420,-770,-560
5.469,88,947,-218,420,-840,-630
5.469,87,946,-220,490,-840,-630
5.469,88,947,-219,420,-770,-560
5.469,88,946,-219,420,-770,-560
5.469,89,947,-218,350,-770,-560
5.469,91,947,-219,350,-770,-560
5.469,89,947,-218,350,-840,-560
5.469,90,948,-219,350,-770,-560
5.469,88,947,-220,420,-770,-630
5.469,88,947,-220,350,-770,-560
5.469,89,947,-220,420,-840,-560
5.469,88,946,-220,420,-770,-560
5.469,90,946,-220,350,-770,-560
5.469,88,947,-219,350,-700,-490
5.469,90,948,-219,350,-770,-560
5.469,92,948,-219,350,-770,-630
5.469,88,947,-219,350,-770,-630
5.469,88,947,-219,350,-840,-630
5.650,88,947,-219,350,-840,-560
5.650,87,947,-219,350,-770,-560
5.650,90,948,-219,420,-770,-490
5.650,90,947,-219,350,-840,-560
5.650,90,948,-219,350,-770,-560
5.650,89,948,-219,490,-770,-560
5.650,89,946,-219,420,-700,-560
5.650,90,947,-219,420,-770,-560
5.650,88,947,-219,350,-770,-560
5.650,88,947,-220,350,-840,-560
5.650,89,947,-219,420,-770,-490
5.650,87,947,-219,280,-840,-560
5.650,91,948,-219,350,-770,-560
5.650,89,947,-219,420,-770,-560
5.650,88,947,-218,420,-770,-560
5.650,88,947,-218,350,-770,-560
5.650,88,946,-219,420,-700,-560
5.650,90,947,-219,350,-770,-560
5.650,88,947,-218,350,-840,-560
5.650,88,946,-219,350,-770,-560
5.832,88,947,-219,350,-770,-560
5.832,87,947,-219,350,-770,-560
5.832,90,947,-219,350,-700,-560
5.832,89,947,-219,350,-770,-630
5.832,90,947,-219,350,-770,-560
5.832,90,947,-219,350,-770,-560
5.832,88,946,-219,420,-910,-630
5.832,89,948,-219,420,-840,-560
5.832,89,948,-219,420,-840,-630
5.832,87,946,-219,420,-770,-630
5.832,89,947,-219,420,-770,-560
5.832,89,946,-219,350,-770,-560
5.832,90,948,-219,350,-770,-560
5.832,90,948,-219,350,-770,-630
5.832,89,947,-219,350,-770,-560
5.832,89,948,-219,420,-770,-630
5.832,88,946,-219,420,-840,-560
5.832,87,947,-219,350,-840,-560
5.832,88,948,-219,350,-700,-560
5.832,89,947,-219,350,-770,-560
6.14,90,948,-219,350,-770,-560
6.14,91,948,-218,350,-770,-560
6.14,89,947,-219,420,-770,-630
6.14,89,948,-219,420,-840,-630
6.14,89,947,-221,350,-770,-630
6.14,88,947,-220,420,-770,-560
6.14,88,948,-220,350,-770,-560
6.14,89,948,-219,420,-840,-490
6.14,90,947,-220,350,-770,-560
6.14,90,947,-220,350,-770,-560
6.14,90,947,-220,350,-770,-630
6.14,89,947,-220,350,-770,-630
6.14,89,947,-219,420,-770,-560
6.14,88,947,-219,420,-770,-560
6.14,88,947,-219,350,-770,-560
6.14,89,947,-219,350,-770,-560
6.14,89,947,-219,350,-840,-560
6.14,90,947,-220,350,-770,-560
6.14,90,947,-220,350,-770,-630
6.14,89,947,-220,350,-770,-560
6.196,88,948,-220,420,-840,-560
6.196,88,947,-220,420,-840,-630
6.196,88,947,-220,350,-770,-560
6.196,89,947,-220,350,-770,-560
6.196,89,947,-220,350,-770,-560
6.196,90,947,-219,420,-770,-630
6.196,89,947,-219,350,-770,-630
6.196,90,948,-219,350,-770,-630
6.196,89,947,-220,420,-770,-630
6.196,88,947,-220,350,-700,-630
6.196,87,947,-221,420,-770,-560
6.196,88,947,-221,420,-770,-560
6.196,89,948,-220,350,-770,-560
6.196,90,947,-220,350,-770,-490
6.196,91,948,-219,350,-770,-560
6.196,90,948,-219,420,-770,-630
6.196,88,947,-219,350,-770,-560
6.196,88,948,-219,420,-770,-560
6.196,88,946,-219,420,-770,-630
6.196,88,946,-219,350,-700,-630
6.378,89,947,-219,280,-770,-560
6.378,90,947,-219,420,-770,-560
6.378,90,947,-219,420,-770,-560
6.378,90,947,-219,350,-770,-560
6.378,89,947,-219,420,-840,-560
6.378,88,947,-219,420,-840,-630
6.378,88,947,-219,350,-770,-560
6.378,89,947,-220,420,-770,-630
6.378,89,946,-220,420,-770,-630
6.378,89,947,-220,420,-770,-560
6.378,90,947,-219,350,-770,-560
6.378,89,947,-219,280,-840,-560
6.378,89,947,-219,420,-840,-630
6.378,89,947,-220,280,-770,-630
6.378,89,947,-220,350,-770,-560
6.378,89,946,-220,420,-840,-630
6.378,89,947,-220,420,-840,-560
6.378,89,947,-220,420,-770,-630
6.378,88,946,-219,420,-840,-560
6.378,89,947,-219,350,-770,-560
6.559,88,946,-219,350,-770,-560
6.559,90,948,-218,420,-700,-560
6.559,90,947,-219,420,-770,-630
6.559,89,948,-219,350,-770,-630
6.559,89,947,-219,420,-700,-560
6.559,89,948,-219,420,-840,-560
6.559,89,946,-218,420,-840,-630
6.559,88,947,-219,420,-840,-560
6.559,87,947,-219,350,-770,-560
6.559,89,947,-219,280,-770,-560
6.559,90,947,-219,420,-770,-560
6.559,90,948,-218,350,-840,-630
6.559,90,947,-219,350,-840,-560
6.559,89,947,-219,350,-840,-560
6.559,89,947,-218,350,-840,-630
6.559,88,947,-219,280,-840,-630
6.559,88,947,-219,350,-770,-630
6.559,88,947,-219,350,-770,-490
6.559,88,948,-220,280,-770,-560
6.559,90,947,-220,280,-770,-560
6.740,89,947,-220,420,-770,-560
6.740,90,947,-220,350,-840,-560
6.740,89,947,-220,350,-770,-630
6.740,89,948,-219,350,-840,-560
6.740,88,947,-220,420,-840,-560
6.740,89,946,-219,420,-770,-560
6.740,88,947,-219,350,-770,-490
6.740,90,948,-219,280,-700,-490
6.740,90,947,-218,350,-770,-490
6.740,90,947,-219,420,-770,-560
6.740,89,947,-219,420,-770,-630
6.740,88,947,-218,420,-840,-560
6.740,88,946,-218,280,-770,-560
6.740,89,947,-219,280,-840,-560
6.740,88,947,-219,350,-770,-560
6.740,89,947,-219,350,-770,-560
6.740,89,948,-218,350,-770,-560
6.740,91,947,-219,350,-770,-560
6.740,90,948,-219,420,-910,-560
6.740,89,947,-220,350,-840,-630
6.922,89,947,-219,350,-770,-630
6.922,89,946,-220,350,-770,-560
6.922,89,947,-220,350,-770,-560
6.922,89,947,-220,350,-770,-560
6.922,89,946,-220,350,-770,-490
6.922,90,948,-220,350,-770,-560
6.922,91,948,-220,350,-770,-630
6.922,90,947,-220,350,-770,-630
6.922,88,947,-219,420,-770,-630
6.922,88,947,-221,420,-840,-630
6.922,88,947,-220,420,-770,-560
6.922,89,947,-221,350,-770,-490
6.922,90,947,-220,420,-770,-560
6.922,91,948,-220,420,-770,-560
6.922,90,948,-220,420,-840,-560
6.922,89,947,-220,420,-770,-630
6.922,88,947,-220,420,-840,-630
6.922,88,947,-220,350,-840,-560
6.922,88,947,-220,350,-770,-560
6.922,89,947,-220,350,-770,-490
7.104,90,947,-219,420,-770,-560
7.104,91,947,-220,350,-770,-560
7.104,91,947,-219,350,-770,-560
7.104,89,947,-218,350,-770,-560
7.104,88,947,-219,350,-840,-560
7.104,88,947,-220,350,-770,-560
7.104,88,947,-220,350,-770,-560
7.104,88,947,-219,420,-700,-560
7.104,89,947,-219,420,-770,-560
7.104,89,946,-220,350,-700,-560
7.104,90,947,-219,420,-770,-630
7.104,89,947,-220,420,-840,-630
7.104,89,947,-220,350,-840,-560
7.104,89,946,-220,420,-770,-560
7.104,90,947,-220,420,-770,-560
7.104,88,947,-219,350,-840,-490
7.104,89,947,-220,420,-770,-560
7.104,88,947,-219,420,-840,-560
7.104,88,946,-219,420,-840,-560
7.104,90,947,-219,420,-770,-560
7.286,90,946,-219,350,-770,-560
7.286,89,947,-219,280,-770,-490
7.286,90,947,-219,350,-770,-560
7.286,89,947,-220,350,-770,-560
7.286,90,947,-220,420,-770,-560
7.286,88,946,-220,420,-840,-560
7.286,88,947,-218,350,-770,-560
7.286,89,946,-220,350,-770,-560
7.286,89,946,-219,350,-770,-630
7.286,88,947,-219,420,-700,-560
7.286,90,948,-218,350,-770,-560
7.286,89,947,-219,420,-770,-560
7.286,90,947,-220,350,-770,-560
7.286,88,947,-219,350,-840,-630
7.286,89,947,-219,350,-770,-560
7.286,89,947,-219,420,-770,-630
7.286,88,947,-219,350,-770,-630
7.286,89,948,-219,280,-770,-560
7.286,89,947,-219,350,-700,-630
7.286,90,947,-219,350,-770,-560
7.467,91,947,-219,420,-770,-630
7.467,89,947,-219,420,-700,-630
7.467,89,948,-218,420,-700,-560
7.467,89,947,-219,350,-770,-630
7.467,88,947,-220,350,-840,-560
7.467,90,948,-219,350,-770,-490
7.467,88,947,-219,420,-770,-490
7.467,90,948,-219,350,-770,-560
7.467,90,948,-219,420,-770,-560
7.467,89,948,-219,350,-840,-560
7.467,89,947,-219,350,-770,-560
7.467,88,947,-219,420,-770,-630
7.467,90,947,-219,350,-770,-630
7.467,89,948,-218,420,-770,-560
7.467,88,948,-218,420,-770,-630
7.467,90,948,-219,350,-840,-560
7.467,89,947,-220,350,-840,-630
7.467,90,947,-220,420,-770,-630
7.467,88,947,-220,350,-770,-560
7.467,87,947,-220,420,-770,-560
7.648,90,947,-220,420,-770,-560
7.648,88,947,-220,350,-700,-560
7.648,90,948,-220,350,-770,-560
7.648,89,948,-219,420,-770,-560
7.648,89,947,-219,350,-840,-560
7.648,90,948,-219,350,-840,-560
7.648,89,946,-219,420,-770,-630
7.648,88,947,-221,420,-770,-560
7.648,88,946,-221,350,-770,-560
7.648,90,947,-221,350,-770,-560
7.648,90,947,-220,420,-770,-560
7.648,90,947,-220,420,-770,-630
7.648,90,947,-220,350,-840,-630
7.648,89,947,-219,420,-770,-560
7.648,88,947,-220,350,-770,-560
7.648,89,947,-219,420,-840,-560
7.648,90,947,-219,350,-770,-560
7.648,90,947,-220,420,-770,-490
7.648,89,946,-220,350,-770,-560
7.648,89,947,-219,350,-700,-630
7.830,89,947,-220,350,-770,-560
7.830,89,947,-219,420,-770,-560
7.830,90,947,-219,350,-770,-560
7.830,90,947,-220,350,-770,-560
7.830,89,947,-219,420,-770,-560
7.830,89,948,-220,420,-770,-630
7.830,89,947,-220,420,-770,-630
7.830,88,947,-220,350,-770,-560
7.830,90,947,-220,350,-770,-560
7.830,89,947,-219,350,-770,-560
7.830,89,947,-219,350,-700,-560
7.830,90,947,-219,350,-700,-630
7.830,89,947,-219,420,-770,-560
7.830,89,948,-219,420,-840,-630
7.830,89,947,-219,420,-770,-630
7.830,89,947,-219,420,-770,-560
7.830,88,946,-220,420,-840,-490
7.830,87,947,-220,350,-700,-560
7.830,90,948,-219,350,-700,-560
7.830,89,947,-220,420,-770,-560
8.12,90,947,-220,280,-770,-560
8.12,89,947,-219,350,-770,-630
8.12,88,947,-219,280,-770,-630
8.12,89,947,-219,350,-840,-560
8.12,88,947,-219,350,-840,-560
8.12,89,947,-219,420,-770,-630
8.12,88,946,-219,420,-770,-630
8.12,88,947,-219,350,-700,-560
8.12,91,947,-219,420,-770,-630
8.12,88,947,-220,420,-840,-560
8.12,88,947,-219,350,-770,-560
8.12,89,947,-219,350,-840,-560
8.12,89,947,-220,350,-840,-560
8.12,90,948,-219,420,-840,-560
8.12,88,947,-220,350,-770,-560
8.12,89,947,-220,350,-770,-560
8.12,89,946,-220,350,-840,-560
8.12,89,947,-219,350,-770,-560
8.12,90,948,-220,350,-700,-630
8.12,88,948,-219,350,-770,-560
8.194,91,947,-219,420,-770,-560
8.194,88,947,-219,350,-840,-560
8.194,88,947,-219,420,-770,-560
8.194,89,948,-219,420,-840,-560
8.194,88,947,-219,350,-770,-560
8.194,90,947,-219,420,-840,-490
8.194,89,947,-219,350,-840,-630
8.194,89,947,-220,350,-770,-490
8.194,90,946,-220,420,-700,-560
8.194,88,947,-220,490,-700,-560
8.194,90,947,-220,490,-770,-630
8.194,88,947,-220,350,-770,-560
8.194,89,948,-221,350,-770,-560
8.194,89,947,-221,420,-770,-560
8.194,87,948,-220,350,-840,-630
8.194,89,947,-220,420,-770,-630
8.194,90,947,-220,350,-770,-630
8.194,89,947,-220,350,-770,-560
8.194,90,948,-220,420,-770,-560
8.194,89,948,-220,420,-770,-630
8.376,89,948,-221,420,-840,-560
8.376,89,947,-221,420,-770,-560
8.376,88,946,-221,490,-770,-560
8.376,89,946,-220,420,-700,-490
8.376,90,947,-220,420,-770,-560
8.376,89,947,-220,350,-770,-560
8.376,90,947,-220,420,-770,-560
8.376,89,948,-220,350,-770,-560
8.376,89,947,-219,280,-840,-560
8.376,89,947,-220,350,-770,-630
8.376,88,947,-219,350,-770,-630
8.376,89,947,-219,280,-770,-560
8.376,89,946,-220,420,-700,-490
8.376,89,948,-219,420,-770,-490
8.376,90,947,-219,420,-700,-560
8.376,89,947,-219,420,-770,-630
8.376,90,947,-220,420,-770,-630
8.376,88,947,-220,420,-840,-560
8.376,88,946,-219,420,-770,-490
8.376,89,947,-220,350,-770,-490
8.557,88,947,-219,420,-700,-490
8.557,90,947,-219,420,-840,-560
8.557,89,947,-219,420,-770,-630
8.557,89,947,-218,490,-770,-560
8.557,88,947,-219,420,-840,-560
8.557,88,947,-219,350,-840,-630
8.557,90,947,-219,350,-770,-560
8.557,88,946,-219,420,-770,-560
8.557,91,947,-219,350,-770,-560
8.557,90,948,-219,420,-770,-560
8.557,89,948,-219,350,-770,-560
8.557,89,947,-219,420,-840,-630
8.557,87,947,-219,350,-840,-560
8.557,90,947,-219,350,-700,-560
8.557,88,947,-220,350,-770,-560
8.557,91,948,-218,350,-700,-490
8.557,89,948,-220,350,-700,-560
8.557,91,948,-220,350,-840,-560
8.557,89,946,-219,420,-840,-630
8.557,88,947,-219,420,-770,-630
8.739,87,946,-219,350,-770,-560
8.739,86,946,-220,350,-700,-560
8.739,91,947,-220,350,-700,-560
8.739,89,947,-220,350,-700,-560
8.739,91,947,-220,350,-770,-560
8.739,90,948,-220,350,-840,-560
8.739,88,948,-221,420,-770,-560
8.739,89,947,-221,420,-770,-630
8.739,87,946,-221,420,-770,-560
8.739,89,946,-221,420,-700,-490
8.739,90,946,-221,280,-700,-630
8.739,90,946,-221,350,-770,-560
8.739,90,947,-221,350,-840,-560
8.739,89,947,-220,420,-840,-630
8.739,89,948,-220,420,-770,-630
8.739,88,946,-219,350,-770,-560
8.739,87,946,-221,350,-770,-560
8.739,88,947,-220,350,-770,-560
8.739,88,947,-221,420,-840,-560
8.739,91,947,-221,420,-770,-560
8.921,89,946,-222,420,-770,-630
8.921,89,948,-221,350,-840,-560
8.921,89,947,-221,420,-840,-560
8.921,88,947,-221,350,-840,-560
8.921,90,947,-220,350,-770,-560
8.921,87,948,-219,350,-840,-560
8.921,89,948,-220,350,-770,-560
8.921,91,947,-219,350,-770,-630
8.921,88,947,-219,350,-770,-630
8.921,89,948,-220,420,-770,-560
8.921,88,947,-219,420,-770,-560
8.921,89,946,-219,280,-770,-560
8.921,89,947,-220,350,-770,-630
8.921,88,947,-221,420,-770,-630
8.921,89,947,-220,350,-770,-630
8.921,88,947,-219,280,-770,-560
8.921,89,946,-219,350,-770,-560
8.921,88,947,-220,420,-770,-560
8.921,90,947,-220,350,-770,-560
8.921,88,947,-220,350,-840,-630
9.103,89,948,-218,420,-770,-560
9.103,89,948,-219,420,-770,-560
9.103,88,948,-220,350,-840,-490
9.103,89,947,-220,420,-840,-560
9.103,88,947,-221,420,-770,-630
9.103,89,947,-221,350,-770,-560
9.103,90,947,-220,420,-770,-560
9.103,89,947,-220,350,-700,-490
9.103,90,947,-221,350,-840,-560
9.103,88,947,-221,350,-840,-560
9.103,89,946,-221,350,-770,-630
9.103,89,947,-220,420,-700,-560
9.103,88,947,-221,280,-700,-630
9.103,89,948,-221,350,-840,-560
9.103,88,947,-220,350,-770,-560
9.103,89,947,-220,350,-770,-630
9.103,89,947,-219,420,-770,-630
9.103,89,947,-220,280,-770,-630
9.103,90,948,-220,420,-840,-560
9.103,89,947,-220,420,-840,-490
9.285,89,947,-220,350,-840,-560
9.285,89,946,-220,350,-770,-630
9.285,87,946,-220,350,-770,-560
9.285,89,947,-219,350,-770,-560
9.285,88,946,-219,350,-770,-560
9.285,89,947,-219,420,-770,-560
9.285,89,947,-219,420,-770,-630
9.285,91,948,-219,350,-770,-630
9.285,89,948,-220,350,-770,-560
9.285,88,947,-220,420,-770,-560
9.285,88,946,-221,420,-770,-560
9.285,86,947,-221,350,-770,-630
9.285,89,948,-220,350,-770,-490
9.285,89,947,-220,420,-770,-560
9.285,91,948,-221,350,-770,-560
9.285,92,948,-220,350,-840,-560
9.285,89,947,-221,350,-770,-630
9.285,89,948,-220,350,-770,-560
9.285,88,947,-222,350,-770,-630
9.285,88,946,-222,420,-770,-560
9.466,88,948,-222,420,-700,-630
9.466,89,948,-221,350,-770,-490
9.466,90,946,-221,280,-700,-560
9.466,90,947,-221,420,-770,-560
9.466,90,948,-222,420,-770,-630
9.466,88,947,-221,350,-770,-630
9.466,90,947,-221,350,-840,-560
9.466,87,946,-222,420,-840,-630
9.466,88,947,-223,350,-770,-490
9.466,90,948,-221,420,-770,-560
9.466,88,947,-222,280,-700,-560
9.466,93,947,-222,350,-770,-490
9.466,89,947,-222,420,-770,-630
9.466,88,947,-221,350,-770,-560
9.466,90,948,-220,420,-840,-560
9.466,87,946,-220,420,-840,-560
9.466,90,947,-220,420,-770,-490
9.466,88,947,-221,420,-840,-560
9.466,88,947,-220,350,-770,-560
9.466,90,947,-221,420,-770,-560
9.647,89,946,-221,420,-840,-560
9.647,90,947,-220,350,-840,-560
9.647,89,947,-219,420,-770,-630
9.647,88,947,-220,350,-770,-560
9.647,90,948,-220,350,-700,-630
9.647,88,947,-219,420,-770,-630
9.647,89,948,-219,420,-840,-630
9.647,90,947,-220,350,-770,-560
9.647,89,947,-220,350,-770,-560
9.647,89,947,-220,350,-840,-560
9.647,88,947,-219,350,-770,-560
9.647,91,947,-220,280,-770,-490
9.647,89,946,-219,350,-770,-560
9.647,90,947,-220,420,-840,-630
9.647,89,947,-219,420,-840,-630
9.647,88,946,-219,350,-770,-630
9.647,89,947,-220,420,-840,-560
9.647,89,946,-219,350,-770,-630
9.647,89,947,-220,350,-770,-560
9.647,91,947,-219,350,-770,-560
9.829,90,947,-219,350,-770,-630
9.829,89,948,-219,350,-840,-560
9.829,89,947,-219,350,-840,-630
9.829,87,947,-220,420,-770,-630
9.829,89,948,-219,490,-770,-560
9.829,89,947,-220,350,-840,-560
9.829,89,947,-220,280,-700,-490
9.829,92,947,-219,350,-700,-490
9.829,89,947,-218,350,-840,-630
9.829,90,947,-219,350,-770,-630
9.829,89,947,-220,350,-840,-630
9.829,88,947,-220,490,-770,-560
9.829,90,947,-219,350,-770,-560
9.829,88,947,-220,420,-770,-560
9.829,90,946,-221,350,-770,-560
9.829,90,948,-221,420,-840,-630
9.829,88,947,-221,350,-770,-700
9.829,89,948,-221,420,-770,-560
9.829,89,946,-221,280,-770,-560
9.829,89,946,-221,280,-840,-560
10.11,89,947,-221,350,-770,-560
10.11,87,946,-221,350,-840,-560
10.11,90,947,-222,350,-700,-560
10.11,87,947,-221,350,-770,-630
10.11,88,947,-221,350,-770,-560
10.11,90,947,-220,420,-770,-560
10.11,90,947,-222,420,-700,-560
10.11,89,948,-224,350,-840,-560
10.11,90,948,-223,420,-770,-560
10.11,89,947,-223,350,-770,-560
10.11,89,947,-223,350,-840,-630
10.11,89,947,-221,420,-770,-630
10.11,88,947,-222,350,-770,-560
10.11,90,947,-222,420,-770,-560
10.11,89,947,-222,350,-840,-630
10.11,89,947,-222,350,-770,-630
10.11,89,946,-222,420,-840,-560
10.11,88,947,-222,350,-770,-560
10.11,89,947,-222,350,-770,-630
10.11,90,947,-223,420,-770,-560
10.193,89,947,-223,350,-770,-560
10.193,90,948,-222,350,-770,-560
10.193,90,947,-222,420,-770,-630
10.193,88,946,-221,420,-840,-630
10.193,89,947,-221,350,-770,-630
10.193,89,947,-222,420,-700,-560
10.193,89,947,-221,420,-770,-630
10.193,89,946,-221,420,-770,-560
10.193,89,947,-221,350,-840,-560
10.193,89,948,-221,350,-840,-490
10.193,90,947,-221,350,-770,-630
10.193,90,947,-222,350,-770,-630
10.193,89,947,-222,350,-770,-490
10.193,88,947,-222,420,-840,-630
10.193,88,946,-221,350,-840,-630
10.193,89,947,-222,350,-770,-490
10.193,89,947,-221,420,-700,-560
10.193,91,947,-222,350,-770,-560
10.193,90,948,-221,350,-770,-560
10.193,89,947,-221,420,-770,-630
10.374,89,947,-220,420,-770,-630
10.374,88,946,-220,420,-770,-560
10.374,87,947,-221,420,-770,-560
10.374,89,946,-221,350,-770,-560
10.374,89,947,-221,350,-840,-490
10.374,89,947,-221,420,-770,-560
10.374,88,948,-221,350,-770,-630
10.374,90,946,-221,280,-770,-630
10.374,90,947,-221,350,-840,-560
10.374,90,948,-220,420,-770,-560
10.374,88,947,-221,420,-840,-630
10.374,89,947,-221,420,-770,-560
10.374,90,947,-221,420,-770,-560
10.374,88,947,-219,420,-770,-560
10.374,89,948,-219,350,-840,-560
10.374,90,946,-221,350,-700,-560
10.374,90,947,-221,420,-700,-490
10.374,89,947,-220,490,-770,-560
10.374,88,946,-220,420,-700,-490
10.374,90,947,-220,350,-770,-560
10.555,90,946,-220,420,-700,-560
10.555,90,946,-220,420,-770,-630
10.555,89,947,-219,420,-840,-560
10.555,88,947,-220,420,-770,-630
10.555,89,946,-220,420,-840,-560
10.555,87,947,-221,420,-840,-560
10.555,90,947,-221,420,-840,-560
10.555,89,946,-220,420,-840,-560
10.555,89,948,-220,350,-770,-560
10.555,90,947,-220,350,-770,-630
10.555,89,947,-221,420,-770,-630
10.555,89,947,-222,420,-770,-560
10.555,89,947,-222,420,-840,-630
10.555,89,947,-221,420,-770,-560
10.555,88,948,-221,420,-770,-630
10.555,90,946,-221,350,-840,-560
10.555,89,947,-221,350,-770,-560
10.555,90,948,-221,420,-770,-490
10.555,90,948,-221,490,-840,-630
10.555,88,947,-222,350,-840,-560
10.737,90,947,-221,420,-770,-630
10.737,88,947,-221,350,-910,-630
10.737,89,947,-222,350,-840,-560
10.737,90,947,-222,420,-770,-560
10.737,88,947,-223,350,-700,-560
10.737,90,947,-221,350,-770,-490
10.737,88,947,-221,350,-770,-560
10.737,90,948,-221,280,-840,-560
10.737,90,947,-221,350,-770,-560
10.737,89,948,-220,420,-840,-630
10.737,89,947,-220,350,-840,-630
10.737,89,947,-221,350,-840,-630
10.737,88,947,-221,350,-770,-560
10.737,89,947,-221,350,-770,-560
10.737,89,947,-222,350,-700,-560
10.737,90,947,-221,350,-770,-490
10.737,90,948,-221,350,-770,-560
10.737,90,948,-220,420,-770,-560
10.737,90,948,-220,420,-910,-560
10.737,88,946,-221,420,-770,-630
10.919,88,947,-220,420,-770,-560
10.919,87,947,-221,420,-840,-560
10.919,88,947,-220,420,-770,-560
10.919,90,947,-220,350,-770,-490
10.919,91,947,-220,350,-770,-560
10.919,91,947,-220,350,-770,-560
10.919,91,947,-220,350,-770,-630
10.919,88,947,-221,420,-840,-630
10.919,88,947,-222,420,-770,-560
10.919,89,946,-221,350,-840,-560
10.919,87,947,-221,350,-840,-560
10.919,88,947,-221,350,-770,-490
10.919,90,947,-222,420,-700,-560
10.919,89,947,-220,490,-770,-560
10.919,90,948,-220,420,-840,-560
10.919,90,947,-221,350,-840,-560
10.919,89,947,-222,350,-770,-630
10.919,89,948,-221,350,-770,-560
10.919,88,947,-221,350,-770,-560
10.919,89,948,-220,350,-770,-560
11.101,90,947,-219,280,-770,-630
11.101,88,947,-219,350,-770,-560
11.101,89,947,-220,350,-840,-560
11.101,89,947,-220,420,-840,-560
11.101,89,947,-221,420,-840,-490
11.101,90,948,-220,490,-840,-490
11.101,89,947,-220,350,-840,-560
11.101,90,947,-221,350,-840,-630
11.101,89,947,-221,350,-770,-630
11.101,88,946,-220,420,-770,-630
11.101,88,948,-220,420,-700,-560
11.101,88,946,-219,350,-700,-630
11.101,90,947,-220,280,-770,-560
11.101,90,947,-220,280,-840,-560
11.101,90,948,-219,420,-770,-630
11.101,89,947,-220,420,-770,-630
11.101,88,946,-220,350,-700,-560
11.101,90,946,-220,280,-770,-560
11.101,89,947,-220,350,-770,-630
11.101,89,947,-220,350,-700,-630
11.282,90,946,-220,350,-770,-560
11.282,88,946,-221,350,-770,-560
11.282,90,948,-220,350,-770,-560
11.282,89,948,-220,420,-840,-630
11.282,89,947,-221,350,-840,-560
11.282,88,946,-222,350,-770,-630
11.282,88,946,-222,420,-770,-560
11.282,88,948,-222,420,-840,-560
11.282,89,948,-220,350,-770,-560
11.282,89,947,-221,280,-840,-560
11.282,90,948,-221,350,-840,-560
11.282,90,947,-221,350,-770,-560
11.282,89,948,-221,350,-770,-560
11.282,89,947,-220,350,-840,-560
11.282,88,946,-220,350,-770,-560
11.282,88,946,-221,350,-770,-560
11.282,88,948,-220,350,-700,-560
11.282,89,948,-220,350,-770,-560
11.282,90,946,-221,350,-770,-560
11.282,91,948,-220,420,-770,-560
11.464,89,948,-220,420,-840,-560
11.464,88,947,-220,420,-840,-630
11.464,89,947,-220,350,-840,-630
11.464,88,946,-221,350,-770,-630
11.464,89,948,-219,350,-770,-630
11.464,89,947,-220,350,-770,-560
11.464,90,946,-219,350,-700,-560
11.464,91,947,-220,420,-770,-630
11.464,88,948,-220,350,-840,-630
11.464,89,947,-219,350,-840,-560
11.464,88,946,-219,350,-770,-560
11.464,89,947,-220,350,-770,-560
11.464,89,948,-220,350,-770,-560
11.464,87,947,-220,350,-840,-560
11.464,90,947,-219,420,-770,-560
11.464,90,947,-220,420,-770,-560
11.464,89,948,-219,350,-770,-560
11.464,89,948,-219,420,-840,-560
11.464,90,947,-219,490,-840,-560
11.464,89,947,-219,350,-840,-560
11.646,88,948,-220,490,-840,-630
11.646,88,947,-219,350,-840,-560
11.646,89,947,-220,280,-700,-560
11.646,89,946,-220,350,-770,-560
11.646,90,947,-219,350,-770,-560
11.646,90,948,-219,350,-770,-560
11.646,89,946,-219,280,-840,-630
11.646,90,947,-220,350,-840,-560
11.646,88,947,-219,350,-840,-630
11.646,88,948,-219,350,-770,-630
11.646,89,947,-219,350,-840,-560
11.646,88,947,-220,350,-770,-560
11.646,90,947,-220,420,-770,-560
11.646,89,947,-219,350,-700,-630
11.646,90,947,-220,350,-700,-560
11.646,90,947,-220,420,-770,-560
11.646,88,947,-219,420,-840,-630
11.646,89,949,-219,350,-770,-560
11.646,88,947,-220,350,-770,-560
11.646,89,947,-220,420,-770,-560
11.828,88,947,-220,420,-840,-560
11.828,88,946,-220,420,-770,-560
11.828,91,947,-220,350,-770,-560
11.828,90,947,-220,350,-770,-560
11.828,89,947,-220,350,-770,-630
11.828,90,947,-220,420,-840,-630
11.828,88,947,-221,350,-840,-630
11.828,90,947,-221,350,-770,-630
11.828,87,947,-220,350,-840,-630
11.828,88,947,-220,350,-840,-630
11.828,89,947,-221,420,-770,-560
11.828,89,948,-221,420,-770,-560
11.828,90,948,-220,350,-770,-560
11.828,89,947,-220,350,-770,-560
11.828,91,947,-220,350,-770,-490
11.828,91,947,-220,350,-770,-560
11.828,88,948,-221,350,-840,-560
11.828,90,948,-220,350,-770,-630
11.828,89,946,-221,350,-840,-560
11.828,89,947,-221,420,-840,-560
12.10,89,948,-220,420,-770,-560
12.10,89,947,-221,420,-770,-560
12.10,91,946,-221,350,-770,-490
12.10,89,947,-220,280,-840,-560
12.10,90,947,-219,350,-770,-630
12.10,89,947,-220,350,-840,-560
12.10,89,947,-220,350,-840,-560
12.10,88,948,-220,350,-770,-630
12.10,88,947,-220,350,-770,-560
12.10,89,946,-221,350,-630,-560
12.10,90,947,-222,280,-700,-560
12.10,89,948,-222,280,-770,-560
12.10,90,948,-222,420,-770,-560
12.10,89,947,-221,350,-770,-560
12.10,90,947,-222,350,-840,-560
12.10,89,948,-222,490,-840,-630
12.10,88,947,-221,350,-840,-560
12.10,89,948,-222,420,-770,-560
12.10,90,947,-222,420,-840,-560
12.10,90,947,-222,420,-770,-560
12.191,90,948,-221,350,-840,-630
12.191,90,948,-220,420,-840,-630
12.191,89,947,-220,420,-840,-630
12.191,88,947,-220,420,-840,-560
12.191,89,947,-221,350,-840,-630
12.191,90,948,-220,350,-840,-560
12.191,89,947,-221,420,-770,-560
12.191,89,947,-221,350,-770,-630
12.191,91,947,-219,350,-770,-560
12.191,88,947,-221,350,-770,-560
12.191,90,947,-220,280,-840,-560
12.191,89,947,-220,350,-770,-560
12.191,89,947,-220,350,-770,-560
12.191,89,947,-220,350,-770,-630
12.191,89,947,-220,350,-770,-560
12.191,91,948,-219,280,-840,-560
12.191,89,948,-219,280,-770,-560
12.191,90,947,-220,280,-700,-560
12.191,89,947,-219,350,-770,-630
12.191,88,948,-220,420,-770,-630
12.372,88,948,-219,350,-770,-560
12.372,89,946,-219,350,-840,-560
12.372,90,948,-219,350,-770,-560
12.372,90,948,-219,350,-840,-560
12.372,88,947,-219,420,-840,-630
12.372,89,947,-219,420,-840,-630
12.372,88,946,-220,420,-770,-560
12.372,87,947,-220,420,-840,-560
12.372,89,947,-219,420,-840,-560
12.372,89,947,-220,350,-770,-490
12.372,91,947,-220,420,-770,-560
12.372,90,947,-219,350,-770,-560
12.372,89,947,-220,420,-840,-630
12.372,90,947,-219,420,-840,-560
12.372,88,947,-220,420,-770,-630
12.372,89,947,-219,420,-840,-560
12.372,90,946,-219,420,-770,-560
12.372,89,947,-219,350,-770,-560
12.372,90,947,-220,350,-770,-560
12.372,90,947,-220,420,-840,-560
12.554,89,947,-222,350,-770,-560
12.554,90,947,-221,420,-840,-560
12.554,90,947,-220,350,-840,-560
12.554,88,948,-220,420,-840,-560
12.554,89,947,-219,350,-770,-630
12.554,89,947,-219,350,-770,-630
12.554,89,947,-220,420,-770,-630
12.554,88,948,-219,420,-770,-630
12.554,88,948,-220,350,-770,-560
12.554,89,947,-220,350,-770,-560
12.554,90,947,-219,350,-770,-560
12.554,90,947,-219,350,-840,-630
12.554,89,947,-219,350,-700,-560
12.554,89,947,-219,350,-770,-630
12.554,89,947,-220,420,-910,-560
12.554,88,948,-219,350,-770,-630
12.554,89,947,-220,350,-840,-560
12.554,89,947,-219,420,-840,-560
12.554,90,948,-219,420,-770,-560
12.554,90,947,-219,350,-770,-560
12.736,91,947,-219,350,-770,-560
12.736,89,948,-219,420,-840,-560
12.736,89,948,-219,350,-770,-560
12.736,89,946,-220,420,-770,-630
12.736,88,947,-220,420,-770,-560
12.736,89,948,-220,420,-840,-630
12.736,89,948,-219,420,-770,-630
12.736,90,947,-220,420,-840,-560
12.736,90,947,-220,350,-770,-490
12.736,89,947,-220,420,-770,-490
12.736,88,947,-220,350,-840,-560
12.736,89,948,-220,420,-770,-560
12.736,90,947,-220,420,-770,-560
12.736,89,947,-220,350,-770,-560
12.736,90,948,-219,280,-770,-560
12.736,90,947,-219,280,-770,-490
12.736,90,948,-220,350,-840,-560
12.736,89,947,-219,350,-840,-630
12.736,88,947,-220,350,-770,-630
12.736,88,947,-219,420,-770,-560
12.918,88,947,-220,350,-770,-560
12.918,90,947,-220,350,-770,-560
12.918,91,947,-219,350,-770,-560
12.918,90,947,-219,350,-840,-560
12.918,91,947,-220,420,-840,-630
12.918,88,948,-220,420,-770,-700
12.918,88,947,-219,350,-840,-630
12.918,89,946,-220,350,-770,-560
12.918,88,947,-221,350,-770,-560
12.918,90,947,-220,350,-770,-560
12.918,90,946,-219,350,-700,-560
12.918,91,947,-220,350,-700,-560
12.918,91,948,-219,280,-770,-560
12.918,89,948,-219,350,-840,-560
12.918,89,948,-220,420,-770,-560
12.918,88,947,-220,420,-770,-560
12.918,88,947,-219,350,-770,-560
12.918,89,948,-219,420,-770,-560
12.918,90,946,-220,420,-700,-630
12.918,91,947,-220,420,-770,-560
13.99,90,948,-220,350,-770,-560
13.99,89,947,-219,350,-770,-630
13.99,90,947,-220,350,-770,-630
13.99,89,946,-219,280,-840,-700
13.99,89,947,-219,350,-840,-560
13.99,88,948,-219,420,-770,-630
13.99,89,947,-221,420,-700,-560
13.99,89,946,-220,420,-770,-560
13.99,90,947,-221,420,-770,-560
13.99,91,948,-221,420,-770,-630
13.99,90,947,-221,350,-770,-630
13.99,90,947,-221,280,-770,-560
13.99,90,948,-220,420,-840,-630
13.99,88,947,-220,420,-840,-630
13.99,87,947,-220,420,-770,-630
13.99,88,947,-220,350,-770,-630
13.99,89,947,-220,350,-700,-560
13.99,90,947,-221,420,-770,-490
13.99,92,948,-220,420,-770,-560
13.99,91,947,-219,420,-770,-560
13.281,90,948,-220,420,-840,-630
13.281,89,947,-220,420,-840,-700
13.281,88,947,-220,420,-770,-630
13.281,89,947,-220,350,-770,-560
13.281,88,947,-220,420,-770,-560
13.281,90,948,-219,350,-770,-560
13.281,90,948,-219,350,-700,-630
13.281,89,947,-220,350,-770,-630
13.281,90,948,-220,350,-770,-560
13.281,89,947,-219,420,-840,-630
13.281,88,947,-220,420,-770,-560
13.281,91,947,-219,280,-840,-560
13.281,89,947,-220,350,-840,-560
13.281,90,947,-220,350,-840,-560
13.281,90,947,-219,350,-770,-560
13.281,90,947,-220,420,-770,-560
13.281,89,948,-219,350,-840,-560
13.281,88,947,-219,420,-840,-560
13.281,90,947,-219,350,-840,-560
13.281,90,947,-219,350,-770,-560
13.463,90,947,-219,280,-840,-560
13.463,89,948,-218,350,-840,-560
13.463,90,947,-219,350,-840,-560
13.463,90,947,-219,350,-840,-630
13.463,88,948,-219,420,-840,-630
13.463,89,948,-218,350,-770,-560
13.463,89,947,-219,350,-770,-560
13.463,89,946,-219,420,-770,-560
13.463,90,947,-218,420,-770,-560
13.463,89,947,-218,350,-840,-560
13.463,90,947,-219,350,-840,-630
13.463,90,947,-219,420,-840,-630
13.463,89,948,-218,350,-770,-630
13.463,89,947,-218,350,-770,-560
13.463,89,947,-219,420,-840,-560
13.463,89,946,-219,420,-840,-630
13.463,90,947,-218,350,-770,-560
13.463,90,948,-218,350,-770,-490
13.463,90,947,-218,350,-770,-560
13.463,89,947,-219,350,-770,-630
13.645,89,947,-218,350,-840,-630
13.645,88,948,-218,420,-840,-630
13.645,91,947,-219,490,-700,-560
13.645,90,946,-219,350,-770,-560
13.645,90,947,-218,490,-770,-630
13.645,89,948,-219,420,-770,-630
13.645,89,947,-220,350,-770,-630
13.645,90,947,-220,420,-770,-560
13.645,90,947,-219,420,-770,-560
13.645,89,948,-218,350,-770,-560
13.645,90,947,-219,350,-770,-630
13.645,89,947,-219,350,-840,-630
13.645,89,946,-218,420,-840,-560
13.645,87,948,-219,350,-840,-560
13.645,88,948,-218,280,-770,-560
13.645,90,947,-218,420,-770,-560
13.645,90,947,-219,350,-770,-560
13.645,91,948,-218,350,-770,-630
13.645,89,948,-219,420,-840,-560
13.645,89,947,-219,350,-770,-630
13.827,89,947,-218,420,-840,-630
13.827,88,947,-218,490,-770,-630
13.827,89,947,-219,350,-770,-560
13.827,89,947,-219,350,-840,-560
13.827,90,947,-219,350,-770,-560
13.827,89,948,-219,280,-770,-560
13.827,90,947,-218,280,-840,-560
13.827,90,946,-219,420,-770,-560
13.827,89,947,-218,350,-770,-630
13.827,89,947,-219,420,-840,-560
13.827,89,947,-219,420,-770,-560
13.827,89,946,-219,420,-770,-560
13.827,90,948,-219,420,-770,-560
13.827,90,948,-219,420,-770,-560
13.827,90,947,-219,420,-840,-560
13.827,92,947,-219,420,-770,-700
13.827,88,947,-219,350,-840,-630
13.827,88,948,-218,350,-770,-560
13.827,89,947,-219,350,-840,-560
13.827,89,947,-219,350,-840,-490
14.8,90,948,-218,420,-770,-630
14.8,89,948,-218,350,-770,-630
14.8,90,947,-219,420,-840,-490
14.8,89,947,-218,420,-840,-630
14.8,88,947,-218,420,-770,-560
14.8,88,947,-219,350,-770,-560
14.8,89,947,-220,420,-770,-560
14.8,90,947,-219,350,-770,-560
14.8,88,947,-218,350,-770,-560
14.8,90,947,-218,420,-770,-560
14.8,89,946,-218,350,-770,-560
14.8,88,947,-217,350,-840,-630
14.8,88,948,-217,420,-840,-630
14.8,88,947,-218,350,-770,-560
14.8,90,947,-219,420,-700,-560
14.8,90,948,-219,420,-770,-560
14.8,90,948,-219,420,-840,-560
14.8,89,948,-219,350,-840,-560
14.8,89,947,-218,420,-840,-560
14.8,89,947,-219,350,-770,-630
14.190,88,947,-218,420,-770,-560
14.190,90,948,-218,350,-770,-560
14.190,89,947,-219,350,-770,-560
14.190,90,947,-219,420,-840,-630
14.190,89,947,-218,350,-840,-630
14.190,88,947,-219,350,-770,-630
14.190,91,947,-219,280,-770,-560
14.190,88,946,-219,350,-770,-560
14.190,91,948,-219,350,-770,-560
14.190,90,948,-219,350,-770,-630
14.190,90,948,-218,350,-770,-560
14.190,90,947,-218,420,-840,-630
14.190,86,946,-220,490,-770,-560
14.190,89,947,-219,420,-770,-560
14.190,88,948,-220,420,-770,-560
14.190,89,946,-220,350,-700,-560
14.190,92,947,-220,350,-770,-490
14.190,90,948,-218,420,-840,-630
14.190,91,949,-219,350,-840,-630
14.190,89,949,-219,350,-840,-630
14.372,89,947,-219,350,-770,-560
14.372,89,948,-220,420,-840,-560
14.372,88,948,-220,420,-770,-560
14.372,88,948,-220,420,-700,-560
14.372,89,946,-220,420,-770,-490
14.372,90,946,-220,420,-770,-560
14.372,92,947,-219,420,-700,-560
14.372,90,948,-219,350,-770,-630
14.372,89,947,-219,350,-840,-630
14.372,89,947,-220,420,-770,-560
14.372,86,946,-218,420,-840,-560
14.372,88,947,-219,350,-840,-490
14.372,90,947,-218,420,-840,-560
14.372,89,947,-219,350,-770,-560
14.372,91,947,-218,350,-700,-560
14.372,90,947,-219,350,-840,-630
14.372,90,947,-218,350,-770,-560
14.372,89,947,-219,420,-840,-630
14.372,88,947,-219,420,-770,-630
14.372,89,948,-219,350,-770,-560
14.554,89,946,-219,350,-770,-560
14.554,90,948,-218,350,-770,-560
14.554,90,947,-218,420,-770,-630
14.554,90,947,-219,280,-770,-630
14.554,91,947,-218,350,-770,-560
14.554,89,947,-218,350,-770,-630
14.554,89,948,-219,350,-770,-630
14.554,90,947,-218,420,-770,-630
14.554,89,947,-219,420,-840,-560
14.554,90,947,-219,350,-770,-560
14.554,88,947,-218,420,-770,-630
14.554,89,947,-218,350,-700,-560
14.554,89,948,-219,420,-770,-560
14.554,88,947,-218,420,-770,-560
14.554,91,947,-219,350,-840,-490
14.554,91,946,-218,350,-770,-630
14.554,90,947,-218,350,-770,-630
14.554,90,947,-218,420,-840,-630
14.554,88,946,-219,350,-840,-630
14.554,89,947,-218,280,-700,-630
14.736,88,947,-218,350,-770,-630
14.736,88,948,-218,280,-770,-560
14.736,90,947,-218,350,-840,-490
14.736,89,947,-218,420,-770,-560
14.736,90,948,-219,420,-770,-560
14.736,89,947,-218,420,-770,-630
14.736,88,947,-219,420,-840,-630
14.736,89,947,-218,350,-840,-630
14.736,89,947,-218,350,-770,-560
14.736,90,947,-218,420,-770,-560
14.736,90,947,-219,420,-770,-490
14.736,89,948,-219,420,-770,-560
14.736,89,947,-218,420,-840,-560
14.736,88,947,-218,280,-770,-560
14.736,89,946,-220,420,-840,-560
14.736,89,947,-219,350,-840,-560
14.736,90,947,-219,420,-840,-630
14.736,89,947,-218,420,-770,-560
14.736,91,946,-218,420,-840,-560
14.736,91,947,-219,420,-840,-560
14.917,89,948,-219,350,-770,-560
14.917,88,949,-217,350,-770,-560
14.917,89,946,-219,350,-770,-560
14.917,89,947,-219,420,-770,-630
14.917,89,947,-219,420,-770,-700
14.917,89,948,-218,420,-770,-630
14.917,89,947,-219,350,-770,-560
14.917,91,947,-218,350,-700,-490
14.917,90,947,-218,350,-770,-560
14.917,90,947,-217,350,-770,-560
14.917,91,947,-218,420,-770,-630
14.917,89,947,-219,350,-700,-630
14.917,89,947,-219,350,-700,-560
14.917,89,948,-218,350,-770,-560
14.917,90,947,-219,350,-840,-560
14.917,90,947,-218,350,-770,-630
14.917,90,948,-218,350,-770,-630
14.917,90,947,-218,350,-770,-630
14.917,89,947,-219,350,-840,-560
14.917,89,947,-218,420,-770,-630
15.98,88,947,-218,350,-770,-630
15.98,90,948,-217,350,-770,-630
15.98,90,947,-218,350,-770,-560
15.98,89,948,-218,420,-700,-560
15.98,90,947,-217,420,-840,-630
15.98,89,947,-218,350,-770,-560
15.98,91,948,-218,350,-770,-630
15.98,89,947,-218,420,-770,-630
15.98,88,947,-218,420,-770,-630
15.98,90,949,-218,420,-770,-560
15.98,89,947,-218,350,-770,-560
15.98,90,948,-218,350,-700,-560
15.98,89,947,-218,420,-770,-630
15.98,88,947,-218,350,-840,-560
15.98,91,946,-218,420,-770,-560
15.98,89,946,-218,420,-840,-560
15.98,90,948,-217,490,-840,-560
15.98,90,948,-218,350,-840,-630
15.98,90,947,-218,420,-770,-560
15.98,90,947,-218,420,-770,-630
15.280,88,947,-218,350,-770,-560
15.280,88,947,-218,420,-840,-560
15.280,89,947,-218,350,-770,-560
15.280,90,947,-218,350,-770,-560
15.280,91,948,-218,420,-840,-630
15.280,89,947,-218,420,-770,-560
15.280,90,947,-218,350,-840,-560
15.280,88,947,-218,490,-770,-560
15.280,88,947,-218,490,-770,-560
15.280,90,948,-218,280,-770,-560
15.280,89,947,-219,420,-840,-560
15.280,91,947,-218,420,-770,-560
15.280,88,948,-217,420,-770,-630
15.280,90,947,-218,280,-770,-490
15.280,90,947,-218,350,-770,-560
15.280,88,947,-218,350,-770,-560
15.280,90,947,-217,420,-840,-560
15.280,88,946,-218,420,-840,-560
15.280,90,946,-219,420,-770,-560
15.280,90,947,-217,420,-770,-630
15.462,88,947,-218,490,-770,-560
15.462,91,949,-218,350,-700,-560
15.462,89,947,-218,350,-700,-630
15.462,90,947,-217,350,-840,-630
15.462,89,947,-217,350,-770,-630
15.462,86,947,-218,420,-770,-630
15.462,91,947,-219,350,-770,-560
15.462,90,946,-219,420,-840,-560
15.462,90,947,-218,420,-770,-560
15.462,89,948,-218,350,-770,-560
15.462,88,947,-218,420,-770,-560
15.462,90,947,-218,350,-770,-560
15.462,88,946,-218,350,-840,-630
15.462,88,948,-218,350,-770,-630
15.462,90,947,-218,350,-770,-560
15.462,89,946,-217,350,-770,-560
15.462,91,947,-218,420,-770,-560
15.462,90,947,-218,420,-770,-560
15.462,90,947,-218,350,-840,-630
15.462,89,947,-218,350,-840,-630
15.644,87,946,-218,420,-910,-630
15.644,88,946,-219,350,-770,-560
15.644,88,947,-219,350,-770,-560
15.644,89,947,-219,350,-770,-560
15.644,91,948,-218,350,-770,-490
15.644,90,948,-217,280,-770,-630
15.644,90,948,-218,350,-770,-630
15.644,89,947,-218,420,-840,-630
15.644,88,947,-218,420,-770,-630
15.644,88,947,-218,420,-770,-560
15.644,89,947,-218,420,-770,-560
15.644,90,947,-218,350,-770,-560
15.644,89,948,-218,350,-770,-630
15.644,89,948,-218,350,-770,-630
15.644,89,947,-218,420,-840,-560
15.644,89,947,-218,420,-770,-560
15.644,90,948,-218,420,-840,-560
15.644,89,948,-218,420,-840,-560
15.644,89,947,-219,350,-770,-560
15.644,89,947,-218,350,-840,-560
15.825,89,947,-217,350,-840,-560
15.825,90,947,-218,350,-770,-560
15.825,90,948,-218,280,-700,-560
15.825,89,947,-218,420,-770,-630
15.825,90,948,-218,420,-840,-560
15.825,89,947,-218,350,-770,-560
15.825,88,947,-218,420,-840,-560
15.825,89,948,-218,420,-770,-560
15.825,89,947,-218,350,-840,-560
15.825,90,947,-218,350,-700,-490
15.825,90,947,-219,420,-700,-560
15.825,90,947,-218,350,-770,-630
15.825,90,947,-218,420,-770,-630
15.825,88,947,-217,420,-770,-630
15.825,90,948,-218,350,-770,-560
15.825,89,947,-218,420,-770,-630
15.825,89,948,-218,420,-770,-560
15.825,89,948,-219,420,-770,-560
15.825,88,947,-218,350,-770,-560
15.825,91,947,-219,350,-770,-560
16.7,89,947,-218,350,-770,-560
16.7,90,948,-218,350,-770,-560
16.7,89,947,-218,420,-840,-560
16.7,89,947,-219,350,-840,-630
16.7,89,947,-218,350,-770,-560
16.7,88,948,-219,420,-840,-490
16.7,89,947,-218,350,-840,-560
16.7,90,947,-218,350,-840,-560
16.7,89,948,-219,350,-840,-560
16.7,89,949,-218,420,-770,-630
16.7,88,947,-219,350,-840,-630
16.7,89,947,-219,350,-770,-560
16.7,89,946,-219,350,-770,-560
16.7,90,948,-218,420,-770,-560
16.7,90,948,-219,420,-770,-560
16.7,89,946,-219,350,-840,-630
16.7,89,947,-219,350,-840,-630
16.7,89,948,-218,350,-770,-560
16.7,88,947,-218,420,-840,-630
16.7,89,947,-218,350,-770,-630
16.189,91,947,-218,350,-840,-630
16.189,90,948,-217,350,-770,-630
16.189,90,948,-218,350,-770,-630
16.189,89,947,-218,420,-700,-630
16.189,89,947,-219,420,-770,-560
16.189,89,947,-219,420,-700,-560
16.189,88,948,-218,420,-770,-560
16.189,90,948,-218,420,-770,-490
16.189,89,947,-219,350,-770,-560
16.189,90,948,-218,350,-770,-560
16.189,90,948,-218,420,-840,-560
16.189,89,947,-218,420,-840,-560
16.189,90,946,-218,420,-770,-560
16.189,88,947,-219,420,-770,-630
16.189,89,947,-218,420,-700,-630
16.189,90,947,-218,350,-700,-560
16.189,90,947,-218,350,-770,-560
16.189,90,947,-218,420,-840,-560
16.189,89,948,-219,350,-770,-560
16.189,89,947,-219,350,-840,-630
16.371,89,947,-219,420,-840,-560
16.371,90,945,-218,420,-770,-560
16.371,90,947,-218,420,-840,-560
16.371,90,948,-219,350,-770,-630
16.371,90,948,-218,350,-700,-560
16.371,90,948,-219,350,-770,-560
16.371,89,947,-218,350,-770,-560
16.371,89,948,-219,350,-770,-560
16.371,89,948,-219,350,-770,-560
16.371,88,947,-219,490,-770,-630
16.371,89,947,-218,490,-840,-560
16.371,91,947,-218,420,-770,-560
16.371,90,948,-218,350,-770,-560
16.371,90,948,-218,350,-840,-560
16.371,89,948,-218,420,-840,-560
16.371,89,948,-218,420,-840,-630
16.371,89,946,-218,350,-770,-560
16.371,87,947,-219,350,-840,-560
16.371,90,947,-218,280,-770,-560
16.371,90,948,-219,350,-770,-560
16.553,91,947,-218,350,-770,-630
16.553,88,948,-218,350,-700,-560
16.553,89,947,-219,350,-770,-560
16.553,89,947,-219,350,-770,-630
16.553,89,947,-219,350,-770,-560
16.553,89,948,-218,350,-770,-560
16.553,91,947,-218,350,-840,-630
16.553,91,947,-218,420,-770,-560
16.553,90,947,-218,350,-840,-560
16.553,90,947,-217,350,-840,-630
16.553,87,948,-218,420,-840,-700
16.553,88,947,-218,490,-770,-630
16.553,87,946,-218,420,-770,-560
16.553,90,948,-219,350,-770,-560
16.553,91,947,-218,420,-700,-560
16.553,90,947,-218,280,-770,-560
16.553,90,947,-218,280,-770,-560
16.553,90,947,-218,280,-840,-630
16.553,89,946,-218,420,-840,-560
16.553,89,948,-217,350,-840,-560
16.734,89,947,-218,350,-840,-560
16.734,88,948,-218,420,-770,-560
16.734,90,948,-218,420,-700,-560
16.734,90,948,-218,420,-770,-490
16.734,90,948,-219,420,-770,-560
16.734,90,947,-218,420,-770,-630
16.734,89,947,-219,420,-840,-630
16.734,89,947,-218,420,-840,-630
16.734,88,947,-218,280,-770,-630
16.734,87,947,-218,350,-770,-490
16.734,90,947,-218,350,-770,-560
16.734,89,948,-218,420,-840,-560
16.734,90,948,-219,420,-910,-490
16.734,92,948,-218,350,-840,-560
16.734,89,947,-218,420,-840,-630
16.734,91,947,-219,420,-770,-630
16.734,88,947,-219,420,-770,-560
16.734,88,947,-219,420,-700,-560
16.734,89,946,-218,420,-770,-560
16.734,89,947,-218,420,-840,-560
16.916,91,948,-218,420,-770,-560
16.916,89,947,-218,350,-770,-630
16.916,90,947,-219,350,-770,-630
16.916,91,947,-219,350,-840,-490
16.916,88,947,-218,350,-770,-630
16.916,89,948,-219,420,-770,-560
16.916,90,948,-218,350,-700,-630
16.916,91,948,-218,350,-770,-560
16.916,90,947,-218,420,-770,-560
16.916,89,948,-218,490,-770,-560
16.916,89,947,-219,420,-770,-630
16.916,89,947,-219,350,-770,-560
16.916,89,947,-218,420,-770,-560
16.916,88,948,-218,280,-840,-490
16.916,91,948,-219,350,-840,-490
16.916,90,948,-218,350,-840,-560
16.916,90,948,-217,420,-770,-630
16.916,89,948,-218,490,-770,-630
16.916,87,947,-218,350,-770,-630
16.916,90,947,-218,420,-770,-560
17.98,88,948,-218,420,-770,-560
17.98,90,948,-219,420,-770,-630
17.98,90,947,-219,350,-840,-630
17.98,90,948,-218,350,-840,-630
17.98,91,948,-218,280,-910,-560
17.98,88,947,-219,280,-840,-630
17.98,88,948,-219,420,-770,-630
17.98,89,948,-218,350,-770,-560
17.98,88,946,-218,350,-770,-560
17.98,92,947,-218,350,-700,-490
17.98,91,947,-218,420,-770,-560
17.98,89,948,-219,420,-770,-560
17.98,91,948,-218,350,-770,-630
17.98,89,947,-219,350,-770,-630
17.98,89,948,-219,420,-770,-560
17.98,89,949,-218,420,-770,-560
17.98,88,947,-218,490,-840,-560
17.98,89,947,-219,420,-770,-560
17.98,90,948,-218,420,-840,-560
17.98,89,948,-219,420,-770,-560
17.280,90,947,-219,350,-840,-560
17.280,89,946,-219,350,-840,-630
17.280,89,947,-219,420,-770,-560
17.280,90,947,-219,350,-770,-490
17.280,91,947,-219,350,-840,-560
17.280,90,948,-218,420,-840,-630
17.280,88,948,-218,420,-840,-560
17.280,90,947,-218,420,-770,-560
17.280,89,947,-219,350,-770,-630
17.280,89,948,-220,350,-770,-560
17.280,89,947,-219,350,-840,-560
17.280,89,948,-220,420,-840,-490
17.280,91,947,-220,420,-770,-560
17.280,89,947,-219,350,-770,-560
17.280,89,948,-219,350,-840,-490
17.280,89,948,-219,350,-770,-560
17.280,88,946,-219,420,-770,-630
17.280,89,947,-219,350,-770,-630
17.280,87,947,-219,350,-770,-490
17.280,90,948,-219,350,-700,-560
17.461,90,947,-218,350,-770,-560
17.461,90,947,-219,420,-770,-630
17.461,91,948,-219,420,-770,-560
17.461,89,947,-218,420,-840,-630
17.461,89,947,-219,350,-910,-630
17.461,90,947,-218,420,-770,-630
17.461,88,948,-219,420,-770,-560
17.461,90,948,-219,420,-770,-560
17.461,89,948,-220,350,-770,-560
17.461,89,947,-219,350,-770,-560
17.461,90,948,-218,350,-840,-560
17.461,89,947,-219,350,-770,-560
17.461,90,947,-218,350,-770,-560
17.461,90,947,-218,350,-840,-630
17.461,89,947,-218,420,-770,-630
17.461,90,948,-218,420,-770,-560
17.461,90,947,-218,420,-840,-560
17.461,90,946,-219,350,-840,-560
17.461,88,948,-218,420,-840,-560
17.461,89,948,-219,420,-840,-560
17.643,89,947,-220,420,-770,-560
17.643,90,946,-220,350,-840,-630
17.643,90,947,-218,420,-770,-560
17.643,91,947,-219,420,-770,-490
17.643,92,948,-218,350,-840,-560
17.643,90,946,-218,420,-840,-630
17.643,89,947,-219,420,-770,-560
17.643,89,947,-219,420,-770,-630
17.643,87,948,-220,420,-840,-630
17.643,89,947,-219,420,-770,-490
17.643,89,948,-219,350,-770,-490
17.643,91,947,-219,350,-770,-560
17.643,91,947,-219,490,-770,-560
17.643,90,948,-220,420,-840,-630
17.643,89,947,-220,350,-770,-630
17.643,88,947,-220,420,-840,-560
17.643,89,947,-220,280,-840,-560
17.643,88,947,-219,420,-770,-560
17.643,89,948,-219,350,-770,-560
17.643,90,948,-219,280,-770,-490
17.825,90,948,-219,350,-770,-630
17.825,90,948,-219,420,-700,-630
17.825,90,947,-219,350,-840,-560
17.825,89,947,-219,420,-770,-560
17.825,89,948,-220,350,-840,-560
17.825,89,947,-219,420,-770,-560
17.825,90,948,-219,350,-770,-560
17.825,89,947,-219,350,-770,-560
17.825,91,947,-220,420,-770,-560
17.825,90,947,-219,350,-840,-630
17.825,90,947,-219,420,-840,-630
17.825,89,948,-220,420,-840,-560
17.825,89,947,-220,420,-770,-560
17.825,89,947,-219,350,-770,-560
17.825,90,948,-220,420,-840,-560
17.825,89,947,-220,420,-840,-490
17.825,90,947,-219,350,-770,-560
17.825,89,947,-221,350,-770,-630
17.825,90,947,-221,350,-770,-630
17.825,90,947,-222,420,-840,-630
18.7,89,947,-221,420,-770,-560
18.7,89,947,-222,420,-770,-560
18.7,89,948,-221,420,-770,-560
18.7,90,948,-222,420,-840,-560
18.7,90,947,-222,490,-770,-630
18.7,90,947,-223,420,-770,-630
18.7,89,947,-224,420,-770,-560
18.7,89,947,-223,350,-770,-560
18.7,90,947,-222,280,-770,-490
18.7,91,947,-223,280,-770,-560
18.7,90,946,-221,350,-770,-560
18.7,91,948,-221,350,-770,-630
18.7,90,947,-221,350,-840,-560
18.7,89,947,-221,350,-840,-560
18.7,90,948,-222,420,-840,-630
18.7,89,947,-221,420,-770,-560
18.7,89,947,-222,420,-770,-630
18.7,89,946,-223,350,-840,-630
18.7,90,947,-222,350,-770,-630
18.7,90,947,-223,420,-770,-560
18.189,90,947,-224,350,-770,-630
18.189,91,947,-223,280,-770,-630
18.189,90,948,-222,280,-840,-630
18.189,90,948,-222,420,-840,-630
18.189,88,947,-221,350,-840,-560
18.189,89,946,-221,350,-770,-560
18.189,89,946,-221,420,-770,-560
18.189,89,948,-222,420,-630,-490
18.189,90,948,-222,420,-700,-560
18.189,91,947,-222,420,-770,-560
18.189,92,948,-223,420,-770,-560
18.189,90,948,-222,420,-840,-630
18.189,89,947,-223,280,-770,-630
18.189,87,947,-223,350,-770,-630
18.189,89,946,-223,490,-700,-560
18.189,88,947,-223,420,-770,-560
18.189,89,948,-222,350,-770,-560
18.189,90,947,-220,420,-770,-490
18.189,90,947,-221,350,-840,-560
18.189,89,948,-220,350,-770,-560
18.370,89,947,-220,350,-840,-630
18.370,88,946,-221,420,-840,-630
18.370,89,947,-222,420,-840,-560
18.370,87,948,-222,490,-840,-560
18.370,89,948,-222,420,-770,-420
18.370,91,948,-222,420,-700,-490
18.370,90,948,-222,420,-700,-560
18.370,91,947,-221,350,-770,-560
18.370,90,947,-221,350,-770,-560
18.370,89,947,-221,350,-770,-630
18.370,88,947,-220,350,-770,-560
18.370,88,947,-220,420,-840,-560
18.370,89,947,-220,420,-770,-560
18.370,90,949,-221,420,-770,-560
18.370,90,948,-221,420,-770,-560
18.370,89,947,-221,420,-840,-630
18.370,89,946,-221,350,-770,-560
18.370,89,947,-222,420,-770,-560
18.370,89,947,-222,280,-770,-560
18.370,90,947,-221,350,-770,-630
18.552,90,948,-221,350,-770,-560
18.552,90,948,-221,350,-840,-560
18.552,90,947,-221,350,-770,-560
18.552,88,948,-221,350,-770,-560
18.552,88,947,-222,350,-770,-560
18.552,89,948,-222,420,-700,-490
18.552,89,947,-223,350,-770,-560
18.552,91,947,-221,420,-840,-490
18.552,92,947,-221,420,-770,-560
18.552,90,947,-221,350,-840,-630
18.552,89,948,-221,350,-840,-630
18.552,88,947,-220,350,-770,-630
18.552,87,946,-221,350,-770,-630
18.552,89,946,-220,350,-770,-630
18.552,89,948,-219,350,-770,-560
18.552,91,948,-219,350,-700,-560
18.552,91,947,-219,280,-770,-560
18.552,90,948,-219,490,-840,-560
18.552,90,948,-219,350,-840,-560
18.552,88,948,-221,420,-770,-630
18.734,89,947,-221,420,-840,-560
18.734,89,947,-221,420,-770,-560
18.734,88,947,-221,420,-770,-560
18.734,90,948,-220,420,-770,-560
18.734,90,947,-221,350,-840,-560
18.734,91,947,-220,420,-770,-560
18.734,90,946,-220,350,-770,-630
18.734,89,948,-221,350,-840,-560
18.734,88,947,-219,280,-770,-560
18.734,89,947,-220,350,-770,-630
18.734,89,947,-219,350,-770,-560
18.734,89,947,-219,420,-840,-560
18.734,89,948,-219,350,-770,-490
18.734,89,947,-220,350,-770,-560
18.734,90,947,-221,420,-770,-560
18.734,90,948,-219,420,-840,-630
18.734,89,947,-220,420,-840,-630
18.734,90,947,-221,350,-770,-630
18.734,90,947,-220,420,-770,-560
18.734,89,947,-220,420,-700,-560
18.916,89,947,-219,350,-700,-560
18.916,90,948,-220,350,-700,-490
18.916,90,948,-219,350,-770,-490
18.916,89,947,-219,420,-770,-490
18.916,88,947,-220,420,-770,-560
18.916,89,947,-221,420,-840,-560
18.916,90,947,-220,420,-840,-630
18.916,90,947,-221,420,-770,-560
18.916,88,947,-220,420,-770,-560
18.916,90,946,-220,420,-770,-490
18.916,90,947,-219,350,-770,-560
18.916,90,947,-219,350,-840,-560
18.916,91,947,-220,350,-770,-490
18.916,90,947,-219,350,-840,-560
18.916,90,948,-219,350,-840,-630
18.916,90,947,-219,420,-770,-700
18.916,88,947,-220,420,-840,-630
18.916,89,947,-219,350,-840,-630
18.916,87,947,-219,420,-840,-630
18.916,90,948,-219,350,-770,-560
19.97,90,948,-218,420,-770,-560
19.97,91,947,-219,350,-770,-490
19.97,91,948,-219,350,-770,-560
19.97,91,948,-218,420,-840,-560
19.97,88,946,-218,420,-840,-630
19.97,88,947,-219,350,-770,-560
19.97,88,947,-220,420,-840,-560
19.97,88,947,-219,350,-770,-490
19.97,91,948,-219,350,-700,-560
19.97,91,947,-218,350,-770,-560
19.97,92,948,-219,350,-770,-630
19.97,90,948,-219,350,-840,-630
19.97,88,947,-219,420,-840,-630
19.97,88,947,-220,350,-840,-630
19.97,88,947,-219,350,-840,-630
19.97,89,946,-219,420,-770,-560
19.97,89,948,-219,420,-700,-490
19.97,91,947,-219,350,-770,-490
19.97,91,948,-219,420,-840,-630
19.97,90,948,-219,420,-840,-560
19.279,88,947,-218,420,-840,-630
19.279,87,947,-219,350,-840,-630
19.279,89,948,-220,420,-770,-560
19.279,88,946,-219,350,-770,-560
19.279,90,948,-219,490,-770,-560
19.279,91,947,-219,420,-770,-490
19.279,90,947,-218,350,-770,-490
19.279,92,947,-218,420,-770,-630
19.279,88,947,-219,420,-770,-630
19.279,90,948,-218,350,-840,-560
19.279,89,947,-218,350,-840,-560
19.279,88,947,-220,420,-770,-560
19.279,90,948,-219,420,-770,-560
19.279,89,947,-219,420,-770,-560
19.279,89,947,-219,420,-770,-560
19.279,91,947,-218,420,-770,-560
19.279,89,947,-218,350,-770,-560
19.279,90,948,-218,350,-770,-630
19.279,90,948,-218,350,-770,-630
19.279,88,948,-219,350,-840,-630
19.461,90,947,-219,420,-770,-560
19.461,88,947,-219,420,-770,-630
19.461,89,947,-219,350,-840,-560
19.461,89,946,-219,420,-770,-560
19.461,89,947,-218,420,-770,-560
19.461,91,947,-219,350,-770,-560
19.461,91,947,-219,350,-770,-560
19.461,91,948,-219,420,-840,-560
19.461,90,948,-219,420,-840,-560
19.461,89,947,-219,350,-840,-560
19.461,88,947,-219,280,-840,-560
19.461,88,947,-219,350,-840,-560
19.461,89,948,-218,420,-840,-490
19.461,89,947,-219,350,-840,-560
19.461,91,947,-218,420,-770,-560
19.461,92,948,-218,420,-770,-560
19.461,90,948,-219,420,-840,-630
19.461,90,948,-218,420,-840,-630
19.461,88,946,-219,420,-770,-630
19.461,88,947,-219,420,-770,-630
19.643,89,947,-219,350,-770,-560
19.643,89,947,-219,420,-770,-560
19.643,90,947,-218,420,-770,-630
19.643,91,947,-218,280,-770,-560
19.643,91,947,-218,350,-840,-560
19.643,90,947,-218,420,-840,-630
19.643,89,947,-218,350,-840,-630
19.643,89,947,-218,420,-770,-560
19.643,88,947,-218,490,-770,-560
19.643,90,947,-219,420,-770,-560
19.643,90,948,-219,420,-770,-560
19.643,89,948,-219,350,-840,-560
19.643,91,947,-217,350,-840,-560
19.643,89,947,-219,420,-840,-630
19.643,91,948,-218,350,-840,-560
19.643,89,947,-219,420,-770,-630
19.643,90,948,-220,350,-770,-490
19.643,90,948,-220,350,-770,-560
19.643,91,947,-221,350,-770,-560
19.643,90,948,-218,280,-770,-630
19.824,89,949,-217,350,-770,-560
19.824,88,948,-217,420,-770,-560
19.824,90,947,-219,420,-840,-490
19.824,90,946,-220,420,-910,-490
19.824,88,946,-220,490,-910,-560
19.824,90,948,-220,420,-770,-490
19.824,91,947,-220,350,-700,-560
19.824,90,946,-220,350,-770,-630
19.824,92,948,-221,350,-840,-560
19.824,88,948,-220,350,-770,-630
19.824,90,948,-219,280,-700,-560
19.824,88,947,-219,280,-700,-700
19.824,87,947,-218,350,-700,-560
19.824,90,949,-217,490,-770,-560
19.824,89,947,-218,420,-840,-560
19.824,92,947,-220,350,-840,-490
19.824,90,945,-219,420,-840,-560
19.824,89,948,-220,420,-840,-630
19.824,90,948,-220,350,-840,-560
19.824,89,946,-220,350,-770,-560
20.5,90,947,-219,350,-700,-490
20.5,90,947,-218,350,-700,-560
20.5,90,947,-218,350,-700,-560
20.5,91,948,-218,350,-770,-560
20.5,89,947,-218,420,-770,-630
20.5,88,948,-217,420,-770,-560
20.5,88,947,-217,350,-840,-630
20.5,87,946,-218,420,-770,-630
20.5,91,947,-219,490,-840,-490
20.5,91,947,-219,420,-840,-560
20.5,89,948,-219,420,-770,-630
20.5,92,948,-218,420,-840,-560
20.5,90,947,-219,350,-840,-630
20.5,90,947,-218,350,-700,-700
20.5,87,948,-218,420,-700,-630
20.5,90,948,-217,280,-700,-560
20.5,90,947,-218,350,-770,-630
20.5,89,947,-218,420,-840,-560
20.5,88,948,-217,420,-840,-630
20.5,88,949,-218,420,-840,-560
20.187,91,947,-218,420,-840,-490
20.187,88,948,-218,350,-840,-560
20.187,90,947,-218,350,-840,-560
20.187,89,948,-218,350,-770,-630
20.187,89,948,-218,420,-700,-560
20.187,91,948,-218,420,-700,-560
20.187,89,946,-218,350,-770,-630
20.187,89,948,-218,420,-770,-560
20.187,89,947,-218,420,-840,-560
20.187,87,946,-218,420,-770,-630
20.187,92,948,-219,420,-770,-560
20.187,89,947,-219,420,-770,-630
20.187,90,948,-218,490,-770,-560
20.187,90,948,-219,420,-840,-560
20.187,89,948,-219,350,-840,-490
20.187,90,947,-219,420,-770,-630
20.187,89,947,-219,420,-770,-630
20.187,89,947,-219,350,-840,-560
20.187,91,947,-220,350,-770,-560
20.187,90,948,-219,420,-700,-560
20.369,90,948,-219,420,-840,-560
20.369,90,948,-219,420,-840,-630
20.369,90,947,-219,420,-910,-630
20.369,89,947,-219,420,-840,-630
20.369,88,946,-218,350,-840,-630
20.369,87,947,-219,350,-770,-560
20.369,90,946,-218,420,-770,-560
20.369,90,947,-218,350,-770,-560
20.369,91,947,-218,350,-700,-560
20.369,92,948,-218,350,-770,-560
20.369,89,947,-218,350,-770,-560
20.369,90,947,-219,350,-840,-630
20.369,89,947,-218,490,-840,-560
20.369,88,947,-220,490,-840,-560
20.369,90,947,-220,350,-700,-630
20.369,88,948,-220,350,-770,-560
20.369,92,948,-220,420,-770,-490
20.369,91,948,-219,420,-840,-560
20.369,89,948,-218,350,-840,-560
20.369,90,947,-218,420,-770,-490
20.551,89,947,-220,490,-770,-630
20.551,90,947,-220,420,-770,-490
20.551,90,947,-220,420,-770,-560
20.551,89,948,-219,350,-840,-560
20.551,91,948,-219,420,-770,-560
20.551,89,947,-220,420,-770,-560
20.551,90,948,-220,420,-770,-630
20.551,89,948,-220,420,-770,-630
20.551,89,947,-220,420,-770,-630
20.551,90,947,-219,420,-770,-560
20.551,89,947,-220,420,-840,-490
20.551,90,948,-219,280,-770,-560
20.551,91,947,-220,350,-840,-560
20.551,89,947,-220,350,-840,-560
20.551,90,947,-219,420,-840,-560
20.551,89,947,-220,350,-840,-630
20.551,89,946,-220,350,-840,-560
20.551,89,946,-220,350,-840,-630
20.551,89,947,-220,420,-770,-630
20.551,89,948,-220,420,-700,-560
20.733,91,947,-220,350,-770,-560
20.733,90,946,-220,350,-770,-560
20.733,90,948,-219,350,-840,-560
20.733,87,947,-219,420,-840,-630
20.733,89,947,-219,420,-840,-630
20.733,89,946,-220,420,-840,-560
20.733,89,947,-219,420,-770,-560
20.733,90,947,-219,420,-770,-490
20.733,90,947,-219,350,-770,-490
20.733,92,948,-220,350,-840,-560
20.733,91,948,-219,420,-770,-630
20.733,90,948,-219,350,-770,-630
20.733,89,947,-220,350,-770,-560
20.733,88,946,-220,420,-840,-630
20.733,89,947,-221,350,-840,-630
20.733,89,947,-220,350,-770,-490
20.733,90,947,-220,350,-700,-490
20.733,92,948,-219,350,-700,-630
20.733,91,947,-220,350,-770,-630
20.733,91,947,-219,350,-770,-630
20.914,88,947,-220,350,-770,-630
20.914,88,947,-221,420,-770,-630
20.914,88,946,-222,490,-770,-560
20.914,88,946,-222,420,-700,-560
20.914,90,947,-222,420,-700,-490
20.914,90,948,-221,350,-770,-560
20.914,91,947,-221,350,-770,-560
20.914,90,947,-220,350,-770,-630
20.914,90,947,-221,350,-840,-630
20.914,90,948,-221,350,-840,-560
20.914,90,947,-220,420,-770,-560
20.914,88,948,-220,490,-770,-630
20.914,89,948,-221,490,-770,-630
20.914,89,947,-222,420,-770,-560
20.914,90,948,-221,420,-700,-560
20.914,89,947,-222,420,-770,-490
20.914,90,947,-221,350,-770,-490
20.914,91,947,-220,350,-770,-560
20.914,91,947,-219,350,-840,-560
20.914,92,948,-219,350,-910,-560
21.96,90,947,-219,280,-840,-700
21.96,88,948,-219,350,-840,-700
21.96,88,947,-219,350,-770,-630
21.96,88,947,-219,490,-770,-560
21.96,89,946,-220,560,-770,-560
21.96,89,947,-220,420,-770,-560
21.96,90,947,-220,420,-770,-490
21.96,91,948,-220,350,-840,-490
21.96,92,948,-219,350,-770,-560
21.96,90,948,-220,350,-840,-630
21.96,89,947,-219,350,-910,-560
21.96,88,947,-220,350,-840,-560
21.96,87,946,-220,420,-770,-490
21.96,90,949,-220,420,-700,-490
21.96,90,947,-219,490,-700,-560
21.96,90,947,-220,420,-770,-420
21.96,95,949,-219,420,-700,-560
21.96,87,946,-220,350,-840,-700
21.96,90,948,-220,420,-770,-630
21.96,88,946,-220,420,-770,-630
21.278,84,946,-220,350,-770,-560
21.278,93,948,-219,350,-770,-490
21.278,87,946,-220,420,-770,-560
21.278,93,948,-219,350,-770,-420
21.278,92,948,-219,490,-770,-630
21.278,87,947,-220,350,-840,-560
21.278,94,948,-220,420,-770,-560
21.278,87,947,-221,420,-770,-630
21.278,88,947,-220,420,-770,-560
21.278,88,947,-221,420,-840,-630
21.278,88,947,-220,420,-770,-560
21.278,91,947,-220,350,-770,-490
21.278,89,946,-220,420,-770,-560
21.278,91,948,-220,210,-840,-560
21.278,90,947,-219,350,-840,-560
21.278,89,947,-220,350,-770,-560
21.278,90,947,-220,350,-840,-560
21.278,88,948,-220,420,-770,-490
21.278,90,947,-219,350,-770,-490
21.278,91,947,-220,420,-700,-490
21.460,90,947,-219,420,-700,-560
21.460,89,947,-218,420,-770,-630
21.460,89,947,-219,420,-770,-560
21.460,88,947,-220,280,-770,-560
21.460,90,947,-219,490,-770,-560
21.460,89,947,-219,350,-770,-560
21.460,90,948,-220,420,-840,-490
21.460,90,948,-220,420,-840,-560
21.460,90,946,-220,420,-770,-560
21.460,90,947,-220,350,-700,-560
21.460,89,947,-219,350,-770,-630
21.460,89,947,-218,350,-840,-560
21.460,89,947,-219,420,-770,-490
21.460,91,948,-219,420,-770,-560
21.460,91,948,-219,420,-840,-560
21.460,89,947,-220,350,-840,-560
21.460,90,948,-219,350,-770,-560
21.460,88,947,-220,350,-840,-560
21.460,88,946,-218,350,-770,-560
21.460,90,947,-219,350,-770,-560
21.641,90,948,-220,350,-770,-490
21.641,90,948,-219,350,-770,-490
21.641,91,948,-219,420,-770,-630
21.641,90,947,-220,350,-770,-700
21.641,90,948,-220,350,-770,-630
21.641,89,948,-220,350,-770,-630
21.641,88,947,-220,350,-770,-560
21.641,91,947,-219,420,-770,-490
21.641,90,947,-219,350,-770,-560
21.641,90,947,-219,350,-840,-490
21.641,92,947,-218,420,-840,-560
21.641,89,947,-219,420,-840,-630
21.641,90,946,-219,350,-770,-630
21.641,88,947,-219,420,-840,-630
21.641,89,948,-218,350,-840,-490
21.641,89,947,-218,280,-770,-560
21.641,91,947,-218,280,-700,-490
21.641,92,947,-219,420,-700,-630
21.641,90,948,-218,350,-840,-630
21.641,90,947,-218,420,-770,-560
21.823,88,947,-219,420,-840,-630
21.823,89,947,-219,420,-770,-560
21.823,89,947,-218,350,-840,-560
21.823,90,948,-218,350,-770,-560
21.823,91,948,-218,350,-770,-560
21.823,91,948,-218,350,-770,-560
21.823,91,947,-218,420,-840,-560
21.823,89,947,-219,350,-770,-630
21.823,89,947,-219,350,-770,-560
21.823,90,946,-218,420,-770,-630
21.823,87,946,-218,350,-770,-560
21.823,90,948,-218,350,-770,-490
21.823,89,948,-220,350,-770,-560
21.823,90,948,-221,350,-770,-560
21.823,91,948,-220,420,-770,-560
21.823,88,947,-219,350,-840,-630
21.823,90,948,-221,350,-770,-560
21.823,89,946,-220,490,-770,-630
21.823,89,947,-219,420,-770,-490
21.823,90,947,-220,420,-770,-560
22.5,90,948,-219,350,-840,-630
22.5,91,948,-219,420,-770,-560
22.5,89,947,-219,350,-770,-560
22.5,91,946,-219,420,-770,-630
22.5,88,948,-219,420,-770,-630
22.5,90,948,-219,420,-770,-560
22.5,90,947,-219,350,-770,-630
22.5,89,947,-219,350,-840,-560
22.5,90,946,-219,420,-770,-630
22.5,88,948,-219,350,-840,-630
22.5,90,947,-219,420,-840,-630
22.5,89,947,-218,350,-840,-560
22.5,89,946,-219,350,-770,-560
22.5,91,948,-219,420,-770,-560
22.5,89,947,-218,420,-770,-560
22.5,91,947,-218,350,-770,-490
22.5,89,946,-219,350,-770,-560
22.5,89,948,-219,350,-770,-560
22.5,89,947,-218,350,-770,-560
22.5,88,947,-218,280,-770,-630
22.187,91,947,-219,350,-770,-560
22.187,90,948,-218,350,-770,-560
22.187,89,947,-218,350,-840,-490
22.187,91,948,-217,350,-840,-490
22.187,90,946,-217,420,-840,-560
22.187,89,948,-218,420,-770,-560
22.187,89,947,-218,420,-770,-630
22.187,88,947,-218,420,-770,-560
22.187,90,947,-218,350,-840,-490
22.187,90,947,-218,420,-770,-560
22.187,91,948,-219,420,-840,-560
22.187,90,948,-219,420,-840,-560
22.187,90,947,-219,420,-770,-630
22.187,89,946,-220,420,-770,-630
22.187,89,947,-220,350,-770,-560
22.187,90,948,-219,420,-770,-560
22.187,89,947,-219,350,-770,-560
22.187,89,947,-219,350,-700,-560
22.187,91,948,-219,350,-700,-560
22.187,91,947,-219,420,-840,-560
22.369,88,947,-220,420,-840,-560
22.369,89,947,-219,420,-770,-630
22.369,88,947,-219,350,-770,-630
22.369,89,948,-219,420,-770,-490
22.369,91,949,-219,490,-700,-560
22.369,88,948,-219,420,-700,-560
22.369,91,948,-220,350,-770,-560
22.369,90,947,-220,420,-840,-560
22.369,88,947,-220,420,-770,-630
22.369,89,948,-219,350,-770,-560
22.369,88,947,-220,490,-770,-630
22.369,89,947,-220,350,-770,-490
22.369,90,948,-220,350,-840,-560
22.369,90,948,-219,350,-770,-490
22.369,91,947,-219,350,-770,-560
22.369,89,947,-220,490,-910,-560
22.369,90,948,-220,420,-770,-560
22.369,88,947,-219,350,-770,-560
22.369,89,947,-220,420,-770,-560
22.369,90,948,-220,350,-770,-630
22.550,89,947,-219,420,-840,-630
22.550,91,947,-219,420,-770,-560
22.550,88,946,-220,350,-770,-560
22.550,90,948,-218,350,-770,-560
22.550,89,947,-219,420,-770,-630
22.550,88,947,-218,350,-770,-630
22.550,90,948,-219,350,-770,-560
22.550,90,948,-219,350,-770,-560
22.550,89,947,-219,420,-770,-560
22.550,90,948,-219,420,-770,-630
22.550,89,947,-220,420,-770,-560
22.550,89,947,-220,350,-770,-560
22.550,90,946,-219,420,-770,-630
22.550,89,948,-219,420,-770,-700
22.550,90,947,-219,420,-770,-560
22.550,90,947,-219,420,-770,-630
22.550,90,947,-218,350,-840,-560
22.550,90,947,-219,350,-840,-560
22.550,89,947,-220,420,-770,-560
22.550,90,948,-218,420,-770,-560
22.732,89,948,-220,420,-840,-560
22.732,89,947,-219,420,-770,-560
22.732,90,947,-218,420,-770,-560
22.732,90,947,-219,420,-700,-630
22.732,90,947,-218,280,-770,-560
22.732,90,947,-218,420,-840,-560
22.732,90,947,-218,490,-770,-560
22.732,89,948,-219,350,-840,-630
22.732,89,947,-220,420,-840,-560
22.732,90,948,-219,420,-840,-560
22.732,89,947,-219,280,-770,-490
22.732,90,947,-219,350,-770,-560
22.732,91,947,-219,350,-770,-560
22.732,90,948,-220,420,-840,-560
22.732,90,947,-219,420,-770,-630
22.732,89,947,-220,420,-770,-560
22.732,89,947,-220,490,-770,-560
22.732,89,948,-219,420,-840,-560
22.732,89,946,-219,420,-770,-490
22.732,89,947,-219,350,-700,-560
22.914,91,948,-219,350,-770,-560
22.914,90,946,-219,420,-770,-630
22.914,90,948,-220,420,-770,-560
22.914,91,947,-219,350,-770,-630
22.914,87,947,-219,350,-840,-560
22.914,90,948,-219,420,-770,-560
22.914,88,947,-219,350,-770,-560
22.914,89,948,-219,350,-770,-490
22.914,90,947,-221,420,-770,-490
22.914,88,948,-220,420,-770,-560
22.914,92,948,-219,280,-770,-490
22.914,91,947,-220,350,-770,-630
22.914,91,948,-219,350,-770,-630
22.914,91,948,-220,420,-840,-560
22.914,89,947,-219,420,-840,-630
22.914,89,947,-220,350,-770,-630
22.914,89,947,-220,420,-770,-630
22.914,90,947,-220,420,-770,-630
22.914,90,948,-220,420,-770,-560
22.914,90,948,-220,420,-770,-560
23.96,91,947,-220,350,-700,-560
23.96,90,948,-219,350,-770,-630
23.96,90,947,-220,420,-770,-630
23.96,89,948,-220,490,-840,-630
23.96,88,948,-220,420,-770,-560
23.96,90,947,-220,350,-840,-560
23.96,90,946,-221,420,-770,-560
23.96,90,948,-222,350,-770,-560
23.96,91,947,-221,350,-840,-560
23.96,89,947,-221,350,-770,-630
23.96,90,947,-221,420,-770,-560
23.96,89,947,-221,420,-840,-560
23.96,88,947,-221,420,-770,-560
23.96,89,947,-222,420,-770,-560
23.96,90,947,-222,420,-770,-560
23.96,90,947,-221,350,-770,-560
23.96,89,947,-221,420,-770,-560
23.96,90,948,-220,350,-700,-630
23.96,90,947,-221,350,-770,-560
23.96,89,947,-220,420,-840,-630
23.278,89,947,-221,420,-770,-560
23.278,89,947,-220,420,-770,-560
23.278,90,947,-220,420,-770,-490
23.278,89,947,-219,420,-770,-560
23.278,89,947,-220,420,-700,-490
23.278,89,948,-219,420,-770,-560
23.278,90,948,-220,420,-700,-560
23.278,91,948,-219,420,-700,-560
23.278,90,948,-220,420,-840,-560
23.278,90,947,-220,420,-770,-630
23.278,89,947,-220,350,-840,-630
23.278,89,947,-221,350,-840,-630
23.278,89,948,-220,350,-840,-630
23.278,89,947,-220,350,-840,-490
23.278,90,947,-220,420,-770,-490
23.278,90,947,-220,350,-770,-490
23.278,91,948,-220,420,-770,-560
23.278,89,947,-220,350,-840,-560
23.278,90,947,-220,420,-770,-630
23.278,89,947,-220,490,-840,-630
23.459,88,947,-221,420,-770,-560
23.459,91,948,-220,420,-770,-630
23.459,89,948,-221,420,-700,-630
23.459,91,948,-220,350,-700,-490
23.459,90,947,-218,420,-770,-560
23.459,89,947,-219,420,-770,-630
23.459,91,947,-219,350,-770,-560
23.459,88,947,-220,350,-770,-630
23.459,89,947,-220,420,-840,-560
23.459,89,947,-220,490,-770,-490
23.459,89,948,-219,420,-770,-490
23.459,90,948,-219,420,-770,-560
23.459,90,947,-219,350,-770,-560
23.459,91,947,-219,420,-770,-560
23.459,91,946,-219,420,-770,-630
23.459,90,947,-219,350,-770,-560
23.459,90,947,-219,350,-840,-560
23.459,89,947,-219,420,-700,-630
23.459,90,947,-219,350,-770,-560
23.459,89,948,-219,420,-770,-560
23.641,89,947,-220,420,-770,-560
23.641,91,947,-220,420,-770,-490
23.641,90,948,-220,490,-770,-630
23.641,89,948,-221,490,-840,-560
23.641,89,947,-221,490,-840,-630
23.641,89,947,-221,420,-770,-630
23.641,90,948,-221,420,-770,-560
23.641,88,948,-221,420,-840,-560
23.641,89,948,-221,350,-770,-560
23.641,90,947,-220,350,-770,-630
23.641,90,947,-219,420,-770,-630
23.641,91,948,-218,350,-770,-560
23.641,88,947,-218,350,-840,-560
23.641,90,948,-219,420,-770,-560
23.641,89,948,-220,420,-840,-700
23.641,89,948,-219,420,-770,-630
23.641,90,948,-219,350,-770,-630
23.641,89,947,-219,350,-770,-630
23.641,90,948,-219,420,-770,-560
23.641,91,949,-219,420,-840,-560
23.823,90,947,-219,350,-770,-560
23.823,91,947,-219,420,-770,-560
23.823,89,947,-220,420,-770,-630
23.823,89,948,-219,350,-770,-560
23.823,90,947,-218,350,-770,-560
23.823,88,947,-219,350,-770,-560
23.823,92,948,-218,420,-770,-630
23.823,88,947,-218,420,-700,-630
23.823,91,948,-217,350,-700,-560
23.823,90,947,-217,420,-770,-630
23.823,88,947,-218,350,-770,-630
23.823,90,947,-220,350,-770,-630
23.823,87,947,-218,420,-840,-560
23.823,88,948,-218,350,-770,-490
23.823,90,946,-218,350,-770,-560
23.823,89,947,-218,350,-770,-560
23.823,91,948,-219,420,-700,-560
23.823,90,947,-219,350,-840,-630
23.823,91,947,-219,350,-770,-630
23.823,90,947,-219,350,-770,-630
24.5,89,948,-220,420,-770,-560
24.5,90,948,-220,350,-770,-560
24.5,89,947,-219,420,-770,-630
24.5,90,947,-219,420,-700,-560
24.5,91,947,-219,420,-700,-560
24.5,88,947,-220,350,-770,-560
24.5,91,948,-220,350,-840,-560
24.5,89,948,-219,350,-840,-630
24.5,89,948,-219,490,-770,-560
24.5,91,948,-219,420,-770,-630
24.5,89,947,-219,350,-770,-630
24.5,91,948,-218,420,-770,-560
24.5,89,947,-219,420,-770,-630
24.5,89,947,-219,350,-770,-560
24.5,91,947,-219,420,-770,-560
24.5,88,947,-219,350,-770,-560
24.5,91,947,-219,420,-770,-560
24.5,90,948,-220,420,-770,-630
24.5,90,947,-220,350,-770,-560
24.5,91,948,-220,350,-840,-630
24.187,88,947,-220,420,-770,-630
24.187,90,947,-220,350,-840,-490
24.187,89,947,-220,420,-840,-560
24.187,89,948,-221,350,-770,-560
24.187,91,947,-223,350,-770,-490
24.187,90,947,-221,420,-770,-560
24.187,91,947,-221,420,-770,-560
24.187,90,948,-221,420,-840,-560
24.187,88,947,-221,350,-840,-560
24.187,90,948,-221,350,-840,-560
24.187,88,947,-220,420,-770,-560
24.187,89,947,-220,350,-770,-560
24.187,89,947,-221,420,-770,-630
24.187,89,948,-221,350,-770,-560
24.187,90,947,-219,350,-840,-560
24.187,89,947,-220,420,-840,-560
24.187,90,947,-219,420,-770,-560
24.187,91,948,-219,420,-840,-560
24.187,89,947,-220,350,-840,-630
24.187,90,947,-219,350,-770,-560
24.368,90,947,-219,350,-840,-560
24.368,89,948,-218,350,-770,-560
24.368,89,946,-219,280,-770,-630
24.368,89,947,-220,350,-840,-560
24.368,90,948,-220,420,-840,-560
24.368,90,948,-219,350,-770,-560
24.368,91,948,-219,280,-770,-560
24.368,90,948,-220,350,-770,-490
24.368,90,947,-220,350,-770,-560
24.368,89,946,-220,490,-770,-630
24.368,89,947,-219,490,-770,-630
24.368,90,948,-219,420,-770,-560
24.368,89,947,-219,350,-840,-560
24.368,89,947,-219,420,-770,-560
24.368,89,947,-219,350,-770,-630
24.368,90,948,-220,350,-770,-630
24.368,90,947,-221,420,-840,-560
24.368,89,948,-221,420,-840,-630
24.368,89,947,-220,350,-840,-560
24.368,89,947,-219,420,-770,-560
24.550,90,947,-219,350,-770,-630
24.550,90,947,-219,420,-770,-630
24.550,90,947,-219,350,-770,-560
24.550,90,947,-219,350,-770,-560
24.550,90,947,-218,350,-770,-560
24.550,90,948,-218,420,-770,-560
24.550,88,947,-219,420,-770,-630
24.550,89,948,-219,420,-770,-630
24.550,90,946,-220,350,-770,-560
24.550,90,947,-220,420,-770,-560
24.550,90,947,-220,420,-770,-560
24.550,89,947,-220,420,-770,-560
24.550,90,947,-221,420,-770,-490
24.550,89,948,-221,420,-770,-560
24.550,90,948,-220,280,-770,-560
24.550,89,947,-219,350,-840,-630
24.550,89,947,-221,420,-840,-560
24.550,89,948,-221,420,-770,-560
24.550,89,946,-220,420,-770,-560
24.550,89,948,-220,490,-770,-560
24.732,91,948,-220,420,-770,-560
24.732,90,947,-221,350,-770,-560
24.732,90,947,-219,350,-840,-560
24.732,90,948,-219,350,-770,-560
24.732,89,948,-219,350,-840,-560
24.732,89,947,-220,350,-770,-560
24.732,90,947,-221,350,-770,-560
24.732,89,947,-221,420,-770,-560
24.732,90,947,-220,350,-840,-490
24.732,90,947,-221,280,-770,-560
24.732,90,946,-222,420,-840,-560
24.732,90,947,-223,350,-840,-630
24.732,90,947,-221,420,-840,-560
24.732,89,947,-221,280,-840,-630
24.732,91,948,-222,350,-770,-630
24.732,90,948,-222,420,-770,-560
24.732,90,947,-221,350,-770,-630
24.732,91,948,-220,420,-840,-630
24.732,90,948,-221,420,-840,-560
24.732,89,947,-220,420,-840,-630
24.914,90,947,-220,420,-770,-630
24.914,89,947,-220,350,-770,-560
24.914,88,947,-221,350,-770,-560
24.914,90,948,-221,350,-770,-560
24.914,90,947,-221,350,-840,-560
24.914,89,947,-221,420,-770,-560
24.914,91,947,-221,490,-840,-630
24.914,89,947,-221,420,-840,-630
24.914,89,946,-221,350,-770,-630
24.914,89,948,-221,350,-770,-630
24.914,90,948,-221,350,-770,-560
24.914,90,947,-221,420,-770,-560
24.914,90,947,-220,420,-840,-630
24.914,90,948,-221,490,-840,-560
24.914,90,947,-221,350,-840,-630
24.914,89,947,-220,420,-770,-560
24.914,90,947,-221,420,-770,-560
24.914,90,947,-222,350,-770,-560
24.914,89,947,-221,350,-770,-560
24.914,90,947,-221,350,-770,-560
25.95,90,947,-221,350,-770,-560
25.95,91,947,-221,420,-700,-630
25.95,90,947,-221,350,-770,-560
25.95,90,947,-221,420,-770,-560
25.95,90,946,-222,420,-770,-560
25.95,89,948,-221,420,-770,-560
25.95,89,948,-220,350,-770,-560
25.95,89,947,-221,280,-770,-560
25.95,89,947,-221,420,-770,-490
25.95,90,947,-222,350,-700,-560
25.95,90,947,-223,350,-770,-630
25.95,90,947,-222,420,-770,-560
25.95,90,948,-221,420,-840,-560
25.95,89,948,-222,420,-770,-560
25.95,90,947,-222,420,-840,-560
25.95,89,947,-222,350,-770,-560
25.95,89,947,-222,490,-770,-560
25.95,91,947,-222,350,-770,-560
25.95,89,947,-222,350,-770,-630
25.95,91,947,-221,420,-840,-560
25.277,90,947,-222,420,-770,-630
25.277,89,947,-222,350,-770,-630
25.277,89,947,-222,420,-770,-560
25.277,89,947,-222,350,-840,-560
25.277,90,947,-222,420,-770,-560
25.277,89,947,-222,350,-840,-560
25.277,90,947,-222,280,-840,-560
25.277,90,947,-222,350,-840,-560
25.277,88,947,-222,350,-700,-560
25.277,91,948,-223,420,-840,-560
25.277,88,947,-222,420,-840,-630
25.277,89,947,-222,490,-770,-560
25.277,90,947,-222,420,-770,-560
25.277,91,947,-222,350,-770,-560
25.277,90,947,-222,350,-770,-560
25.277,88,947,-221,350,-770,-560
25.277,89,947,-221,280,-700,-490
25.277,89,946,-221,350,-770,-560
25.277,89,947,-221,420,-770,-560
25.277,91,947,-221,420,-770,-560
25.459,90,947,-222,350,-840,-560
25.459,91,948,-221,350,-770,-560
25.459,89,947,-222,420,-840,-630
25.459,90,947,-222,490,-770,-560
25.459,90,948,-221,420,-840,-630
25.459,89,947,-221,350,-770,-560
25.459,90,946,-220,350,-770,-560
25.459,90,946,-220,420,-770,-630
25.459,90,947,-221,420,-840,-560
25.459,89,947,-220,420,-770,-560
25.459,89,947,-219,350,-840,-560
25.459,89,946,-219,420,-770,-560
25.459,89,947,-220,350,-770,-630
25.459,90,947,-219,420,-770,-630
25.459,89,947,-219,420,-840,-560
25.459,90,947,-221,350,-770,-490
25.459,90,947,-221,350,-840,-560
25.459,90,947,-220,350,-770,-560
25.459,90,948,-220,350,-770,-560
25.459,89,947,-220,350,-770,-490
25.641,90,948,-220,420,-840,-560
25.641,90,947,-219,420,-840,-560
25.641,91,948,-220,420,-770,-630
25.641,89,947,-221,350,-700,-560
25.641,88,948,-221,350,-770,-560
25.641,90,948,-220,420,-770,-560
25.641,89,947,-221,420,-770,-560
25.641,90,946,-220,490,-770,-560
25.641,90,947,-220,490,-840,-630
25.641,89,947,-220,420,-770,-630
25.641,91,947,-220,420,-770,-490
25.641,90,947,-220,420,-700,-630
25.641,89,948,-219,350,-840,-630
25.641,89,948,-219,490,-840,-560
25.641,88,947,-220,420,-840,-560
25.641,91,947,-220,490,-770,-560
25.641,88,947,-220,350,-700,-560
25.641,90,947,-220,350,-770,-630
25.641,91,947,-220,280,-770,-560
25.641,89,948,-220,350,-770,-560
25.823,90,948,-219,350,-770,-560
25.823,89,947,-220,350,-770,-560
25.823,90,947,-219,350,-770,-560
25.823,90,947,-219,420,-770,-560
25.823,90,947,-220,350,-700,-560
25.823,91,947,-219,420,-770,-560
25.823,89,947,-221,350,-840,-630
25.823,89,947,-220,350,-840,-560
25.823,90,947,-219,420,-840,-490
25.823,89,947,-220,350,-840,-560
25.823,91,947,-219,420,-840,-560
25.823,90,947,-218,420,-770,-630
25.823,90,947,-219,420,-840,-630
25.823,91,947,-219,490,-840,-630
25.823,89,947,-219,490,-770,-560
25.823,89,947,-220,490,-770,-630
25.823,89,947,-221,420,-770,-560
25.823,89,946,-221,420,-700,-560
25.823,91,948,-220,350,-770,-560
25.823,91,948,-221,350,-770,-560
26.4,89,947,-221,350,-770,-560
26.4,90,946,-221,350,-840,-630
26.4,89,947,-221,350,-910,-560
26.4,88,947,-222,350,-770,-560
26.4,88,947,-220,350,-840,-630
26.4,90,947,-220,350,-700,-560
26.4,91,947,-220,420,-700,-560
26.4,90,947,-221,420,-770,-560
26.4,91,947,-219,420,-770,-630
26.4,90,947,-220,350,-770,-630
26.4,89,948,-220,350,-840,-630
26.4,89,946,-219,420,-840,-560
26.4,88,947,-219,420,-840,-630
26.4,88,948,-219,420,-770,-560
26.4,89,947,-219,490,-770,-560
26.4,90,947,-220,490,-770,-490
26.4,90,948,-219,490,-770,-560
26.4,91,947,-219,350,-770,-560
26.4,90,947,-219,350,-770,-630
26.4,90,947,-219,350,-770,-630
26.186,89,947,-219,350,-770,-630
26.186,89,948,-219,350,-770,-630
26.186,89,947,-219,350,-840,-560
26.186,89,947,-219,420,-840,-560
26.186,90,948,-220,420,-770,-490
26.186,90,947,-219,420,-770,-560
26.186,91,947,-220,420,-840,-630
26.186,91,947,-219,350,-770,-630
26.186,91,947,-219,420,-700,-560
26.186,89,947,-219,420,-770,-630
26.186,90,948,-220,350,-770,-560
26.186,90,947,-219,420,-840,-560
26.186,89,947,-219,350,-770,-560
26.186,90,947,-219,420,-770,-560
26.186,89,947,-220,420,-770,-630
26.186,90,947,-220,420,-770,-560
26.186,90,946,-219,420,-770,-490
26.186,90,948,-220,420,-770,-560
26.186,90,948,-220,350,-770,-630
26.186,90,947,-220,350,-840,-630
26.368,90,947,-221,350,-840,-560
26.368,89,947,-221,350,-770,-560
26.368,90,947,-221,490,-700,-630
26.368,90,948,-221,420,-770,-630
26.368,88,947,-221,350,-840,-560
26.368,89,947,-221,420,-770,-560
26.368,89,948,-221,420,-840,-560
26.368,89,947,-220,490,-770,-560
26.368,90,948,-220,350,-770,-560
26.368,91,948,-220,350,-770,-560
26.368,90,946,-220,350,-770,-560
26.368,89,947,-220,280,-840,-630
26.368,89,947,-221,420,-840,-560
26.368,88,947,-221,420,-770,-630
26.368,89,947,-221,420,-840,-490
26.368,91,947,-221,420,-700,-560
26.368,90,947,-222,350,-770,-560
26.368,91,947,-222,350,-840,-490
26.368,91,948,-222,350,-840,-560
26.368,91,947,-222,420,-840,-630
26.550,90,947,-223,420,-770,-630
26.550,88,947,-223,420,-840,-630
26.550,89,948,-224,420,-770,-560
26.550,89,947,-224,350,-840,-630
26.550,90,947,-223,420,-770,-490
26.550,91,947,-223,350,-700,-630
26.550,90,947,-223,280,-770,-560
26.550,91,948,-221,350,-770,-630
26.550,89,947,-221,490,-770,-560
26.550,90,947,-221,420,-770,-560
26.550,89,948,-220,490,-770,-630
26.550,89,947,-220,490,-770,-630
26.550,90,946,-221,420,-840,-560
26.550,89,948,-222,420,-840,-490
26.550,91,947,-223,420,-770,-560
26.550,90,947,-223,420,-700,-630
26.550,90,947,-223,420,-770,-560
26.550,90,948,-223,490,-840,-560
26.550,90,947,-222,420,-770,-630
26.550,90,948,-221,420,-770,-630
26.732,89,948,-221,420,-770,-560
26.732,89,947,-221,350,-770,-560
26.732,90,947,-221,420,-770,-560
26.732,90,948,-221,420,-700,-560
26.732,89,948,-220,420,-770,-630
26.732,90,948,-221,420,-770,-560
26.732,90,948,-220,420,-840,-560
26.732,90,948,-221,420,-840,-560
26.732,90,947,-220,350,-840,-630
26.732,90,947,-221,350,-840,-630
26.732,89,947,-221,420,-840,-560
26.732,90,947,-221,350,-770,-560
26.732,88,947,-222,350,-840,-630
26.732,89,947,-223,350,-770,-560
26.732,90,947,-224,420,-840,-560
26.732,90,947,-223,280,-770,-560
26.732,91,947,-223,420,-770,-560
26.732,91,947,-223,490,-770,-560
26.732,90,947,-222,420,-770,-560
26.732,89,947,-223,420,-770,-560
26.913,89,947,-223,420,-840,-560
26.913,90,947,-224,420,-840,-560
26.913,88,947,-222,420,-770,-560
26.913,89,947,-222,420,-770,-560
26.913,90,947,-222,420,-770,-490
26.913,91,947,-222,350,-840,-490
26.913,91,946,-222,420,-770,-630
26.913,91,947,-222,420,-770,-560
26.913,91,948,-222,350,-840,-630
26.913,89,947,-222,350,-840,-630
26.913,89,947,-221,280,-770,-560
26.913,88,947,-220,280,-770,-560
26.913,89,946,-221,350,-770,-490
26.913,90,947,-220,420,-770,-560
26.913,91,947,-220,350,-770,-560
26.913,91,948,-221,420,-770,-560
26.913,90,947,-220,490,-770,-560
26.913,90,947,-220,420,-700,-630
26.913,90,947,-220,420,-840,-630
26.913,89,947,-220,350,-840,-630
27.95,89,948,-220,420,-770,-560
27.95,90,947,-220,420,-770,-630
27.95,91,947,-219,490,-770,-560
27.95,90,947,-221,350,-770,-560
27.95,91,947,-220,420,-700,-560
27.95,90,948,-220,350,-700,-560
27.95,89,948,-220,350,-840,-560
27.95,90,948,-221,350,-770,-560
27.95,89,947,-220,350,-770,-700
27.95,89,947,-220,350,-770,-560
27.95,90,948,-220,350,-770,-560
27.95,90,947,-222,350,-770,-560
27.95,89,948,-222,490,-770,-560
27.95,90,947,-222,420,-770,-560
27.95,89,947,-221,420,-840,-560
27.95,89,947,-222,420,-770,-560
27.95,90,947,-222,350,-770,-560
27.95,90,947,-220,420,-770,-560
27.95,90,947,-220,350,-770,-560
27.95,89,947,-221,350,-840,-560
27.277,90,947,-220,420,-840,-630
27.277,90,947,-220,420,-840,-630
27.277,89,947,-221,350,-840,-630
27.277,90,948,-221,350,-770,-630
27.277,90,947,-222,420,-770,-560
27.277,90,947,-221,350,-840,-560
27.277,91,947,-221,350,-770,-560
27.277,90,948,-221,420,-770,-560
27.277,90,948,-220,420,-770,-630
27.277,90,948,-220,420,-840,-630
27.277,88,947,-221,420,-770,-630
27.277,90,947,-221,420,-770,-630
27.277,89,947,-221,420,-770,-630
27.277,90,948,-222,420,-770,-560
27.277,91,947,-222,280,-770,-560
27.277,91,947,-221,350,-770,-560
27.277,91,946,-221,350,-770,-560
27.277,89,947,-220,420,-770,-630
27.277,90,947,-220,350,-770,-560
27.277,89,948,-220,420,-770,-560
27.459,89,947,-220,350,-840,-560
27.459,89,948,-220,350,-700,-490
27.459,89,947,-220,350,-700,-560
27.459,90,947,-220,350,-700,-560
27.459,91,947,-221,350,-840,-560
27.459,91,948,-220,350,-840,-630
27.459,90,948,-220,420,-770,-560
27.459,89,947,-221,350,-770,-630
27.459,89,948,-220,420,-840,-630
27.459,88,947,-220,350,-840,-560
27.459,90,948,-221,420,-770,-560
27.459,90,947,-221,420,-840,-560
27.459,90,948,-221,350,-840,-630
27.459,90,947,-221,420,-840,-560
27.459,91,947,-221,350,-700,-490
27.459,90,947,-221,350,-770,-630
27.459,89,947,-221,350,-840,-630
27.459,88,948,-221,420,-840,-560
27.459,90,947,-221,490,-840,-560
27.459,89,947,-220,420,-770,-560
27.641,90,948,-220,350,-840,-490
27.641,90,947,-220,420,-770,-560
27.641,90,947,-221,350,-770,-560
27.641,90,947,-220,350,-770,-560
27.641,90,947,-221,350,-770,-560
27.641,90,947,-221,350,-840,-560
27.641,90,947,-221,420,-770,-630
27.641,89,948,-220,420,-840,-630
27.641,90,948,-221,350,-840,-560
27.641,89,947,-221,350,-770,-560
27.641,89,947,-221,420,-840,-560
27.641,89,947,-221,350,-840,-560
27.641,90,947,-221,280,-840,-560
27.641,90,947,-221,420,-770,-630
27.641,90,947,-221,420,-770,-560
27.641,91,947,-221,420,-770,-630
27.641,90,948,-220,420,-770,-560
27.641,90,948,-220,420,-770,-560
27.641,88,947,-221,420,-840,-630
27.641,89,947,-221,350,-840,-560
27.822,90,947,-221,420,-770,-560
27.822,89,948,-221,420,-700,-490
27.822,91,947,-221,350,-770,-560
27.822,90,948,-220,350,-770,-560
27.822,91,948,-221,420,-840,-630
27.822,89,947,-220,350,-840,-630
27.822,90,948,-221,350,-770,-630
27.822,90,947,-220,350,-840,-630
27.822,90,947,-221,420,-840,-560
27.822,90,948,-220,420,-770,-560
27.822,89,947,-220,420,-770,-560
27.822,90,947,-221,420,-770,-560
27.822,90,946,-220,350,-770,-560
27.822,90,948,-220,350,-840,-490
27.822,90,947,-220,350,-770,-560
27.822,90,947,-219,350,-770,-560
27.822,90,947,-220,420,-770,-560
27.822,90,947,-221,280,-770,-630
27.822,90,947,-221,350,-770,-560
27.822,88,947,-220,420,-840,-630
28.4,88,947,-220,420,-770,-630
28.4,90,947,-220,420,-700,-560
28.4,91,948,-219,350,-770,-560
28.4,91,947,-219,350,-770,-560
28.4,89,948,-220,420,-770,-560
28.4,90,946,-219,420,-840,-560
28.4,91,948,-219,420,-770,-560
28.4,89,947,-220,490,-840,-560
28.4,89,947,-219,490,-770,-560
28.4,90,947,-219,350,-840,-490
28.4,91,946,-220,420,-840,-560
28.4,90,947,-219,350,-770,-560
28.4,91,948,-220,420,-840,-560
28.4,90,947,-219,420,-770,-560
28.4,90,946,-220,420,-770,-630
28.4,89,947,-219,420,-770,-630
28.4,89,947,-219,350,-770,-630
28.4,89,947,-220,420,-840,-560
28.4,89,947,-220,420,-840,-560
28.4,89,948,-220,420,-770,-560
28.186,91,947,-220,420,-910,-490
28.186,91,948,-220,280,-770,-560
28.186,91,947,-221,420,-770,-560
28.186,89,948,-220,420,-770,-560
28.186,90,946,-219,490,-840,-560
28.186,91,947,-220,420,-770,-560
28.186,89,948,-220,420,-840,-560
28.186,90,947,-220,420,-770,-560
28.186,90,948,-219,420,-770,-490
28.186,90,948,-219,350,-770,-560
28.186,90,947,-220,420,-770,-560
28.186,90,947,-220,420,-840,-630
28.186,90,947,-219,420,-770,-560
28.186,89,947,-219,350,-770,-560
28.186,91,947,-220,420,-840,-560
28.186,89,947,-220,420,-840,-560
28.186,89,947,-220,420,-840,-630
28.186,89,947,-220,350,-770,-560
28.186,89,947,-221,420,-700,-560
28.186,90,947,-221,350,-700,-560
28.368,90,948,-221,350,-770,-560
28.368,90,946,-221,420,-840,-560
28.368,90,947,-220,350,-770,-560
28.368,90,946,-220,350,-770,-490
28.368,90,947,-220,420,-840,-490
28.368,90,947,-219,420,-770,-630
28.368,89,947,-219,350,-770,-560
28.368,89,947,-219,350,-700,-560
28.368,89,947,-219,420,-770,-630
28.368,90,947,-220,420,-770,-560
28.368,91,947,-219,350,-700,-560
28.368,90,948,-220,350,-770,-630
28.368,90,947,-219,420,-770,-560
28.368,90,947,-220,420,-840,-490
28.368,90,948,-220,420,-910,-560
28.368,89,948,-220,420,-840,-560
28.368,89,947,-221,350,-770,-560
28.368,90,947,-222,350,-770,-560
28.368,90,948,-221,420,-770,-560
28.368,89,948,-220,420,-770,-560
28.549,90,947,-222,420,-770,-490
28.549,90,947,-222,420,-770,-560
28.549,90,947,-221,420,-770,-630
28.549,90,948,-221,350,-770,-630
28.549,90,949,-221,350,-840,-630
28.549,88,947,-221,350,-770,-560
28.549,90,947,-220,350,-770,-630
28.549,90,947,-220,350,-770,-560
28.549,91,947,-220,420,-770,-560
28.549,90,947,-220,420,-770,-630
28.549,90,947,-219,350,-770,-630
28.549,90,948,-219,420,-770,-630
28.549,90,947,-219,350,-840,-560
28.549,91,947,-220,420,-770,-560
28.549,89,947,-220,420,-770,-560
28.549,89,947,-220,350,-840,-560
28.549,90,947,-219,350,-770,-560
28.549,90,948,-219,420,-770,-560
28.549,90,947,-218,420,-770,-560
28.549,89,947,-220,350,-770,-630
28.730,90,946,-220,420,-770,-560
28.730,89,947,-220,350,-840,-560
28.730,89,947,-220,280,-770,-560
28.730,90,948,-219,350,-770,-560
28.730,90,947,-220,350,-770,-490
28.730,91,947,-219,420,-770,-560
28.730,90,948,-219,420,-770,-560
28.730,89,948,-219,350,-770,-560
28.730,91,948,-219,420,-840,-560
28.730,90,946,-219,420,-770,-560
28.730,91,947,-219,490,-770,-560
28.730,90,948,-219,420,-770,-560
28.730,90,947,-219,420,-770,-630
28.730,90,948,-219,350,-700,-630
28.730,90,947,-218,420,-770,-560
28.730,89,947,-219,420,-770,-630
28.730,89,947,-219,420,-700,-560
28.730,88,948,-219,420,-770,-560
28.730,91,947,-219,420,-770,-560
28.730,90,948,-219,420,-840,-560
28.912,91,948,-220,350,-770,-630
28.912,90,948,-220,420,-840,-630
28.912,88,946,-219,350,-770,-560
28.912,89,947,-219,420,-770,-560
28.912,91,947,-218,350,-770,-560
28.912,91,948,-218,350,-700,-560
28.912,92,948,-218,350,-770,-560
28.912,91,948,-218,420,-840,-560
28.912,91,947,-219,350,-770,-630
28.912,89,947,-218,420,-840,-630
28.912,89,947,-218,420,-840,-630
28.912,89,948,-218,420,-770,-560
28.912,88,948,-219,350,-770,-560
28.912,90,948,-218,420,-770,-560
28.912,89,947,-219,420,-770,-560
28.912,90,948,-218,350,-770,-560
28.912,91,947,-218,420,-770,-560
28.912,90,947,-217,350,-840,-560
28.912,90,947,-218,350,-770,-630
28.912,91,948,-218,490,-840,-630
29.94,90,947,-218,420,-840,-560
29.94,91,947,-218,420,-770,-630
29.94,90,947,-218,350,-770,-630
29.94,89,947,-217,350,-840,-560
29.94,89,948,-218,420,-770,-560
29.94,90,947,-218,420,-700,-560
29.94,91,947,-218,420,-700,-560
29.94,91,947,-218,420,-770,-560
29.94,90,947,-218,280,-770,-560
29.94,90,948,-218,350,-770,-560
29.94,89,947,-218,420,-770,-560
29.94,89,947,-218,420,-770,-630
29.94,90,948,-218,350,-770,-630
29.94,90,948,-218,420,-770,-560
29.94,90,948,-218,490,-770,-560
29.94,90,946,-219,490,-770,-560
29.94,91,947,-219,420,-770,-560
29.94,90,947,-218,420,-770,-630
29.94,90,947,-219,420,-840,-560
29.94,90,948,-218,350,-770,-560
29.276,89,947,-219,420,-840,-630
29.276,90,947,-219,420,-840,-560
29.276,90,947,-218,350,-840,-630
29.276,91,948,-218,350,-770,-560
29.276,90,948,-219,420,-770,-560
29.276,90,947,-219,350,-700,-630
29.276,90,947,-219,420,-770,-560
29.276,89,948,-219,420,-840,-560
29.276,89,948,-219,420,-840,-560
29.276,90,948,-220,350,-840,-560
29.276,89,947,-219,350,-840,-630
29.276,90,948,-220,280,-770,-560
29.276,90,949,-219,350,-770,-630
29.276,91,947,-220,420,-840,-560
29.276,90,947,-219,420,-840,-560
29.276,90,948,-218,420,-700,-630
29.276,89,947,-219,490,-770,-560
29.276,90,948,-218,350,-770,-560
29.276,90,947,-218,350,-770,-560
29.276,90,947,-218,350,-840,-560
29.457,91,948,-218,350,-840,-560
29.457,90,947,-218,350,-840,-560
29.457,91,948,-218,420,-770,-560
29.457,90,947,-218,420,-770,-560
29.457,90,948,-218,350,-770,-560
29.457,90,948,-218,420,-840,-560
29.457,89,947,-218,280,-840,-560
29.457,90,948,-218,350,-840,-630
29.457,90,948,-218,350,-770,-560
29.457,90,947,-217,350,-840,-560
29.457,90,947,-218,350,-770,-630
29.457,90,948,-218,350,-770,-560
29.457,90,947,-218,420,-770,-560
29.457,89,948,-218,350,-770,-560
29.457,91,947,-218,420,-770,-490
29.457,90,947,-218,420,-770,-560
29.457,90,947,-219,420,-770,-630
29.457,90,947,-219,420,-770,-630
29.457,90,947,-219,420,-770,-560
29.457,91,947,-219,350,-770,-560
29.639,90,947,-218,350,-770,-630
29.639,89,947,-219,350,-770,-560
29.639,90,947,-218,280,-840,-630
29.639,90,947,-217,350,-770,-630
29.639,90,947,-218,350,-770,-560
29.639,89,948,-219,420,-770,-630
29.639,90,948,-218,350,-840,-630
29.639,90,947,-218,420,-770,-560
29.639,90,948,-217,420,-840,-560
29.639,90,948,-217,420,-840,-560
29.639,89,947,-218,420,-840,-630
29.639,89,948,-218,420,-840,-560
29.639,90,948,-218,420,-770,-560
29.639,89,948,-217,420,-770,-560
29.639,90,947,-217,420,-840,-560
29.639,89,946,-218,420,-770,-560
29.639,90,947,-217,350,-770,-560
29.639,90,948,-218,490,-840,-560
29.639,90,948,-218,420,-770,-630
29.639,90,948,-217,350,-770,-630
29.821,90,947,-219,350,-770,-630
29.821,90,947,-219,350,-770,-630
29.821,89,947,-219,420,-840,-560
29.821,90,948,-219,420,-770,-630
29.821,90,948,-218,420,-700,-560
29.821,91,947,-219,350,-840,-560
29.821,91,947,-218,350,-840,-560
29.821,90,947,-218,350,-770,-630
29.821,90,947,-218,350,-770,-630
29.821,90,947,-218,350,-840,-560
29.821,89,948,-219,420,-770,-490
29.821,90,947,-218,420,-700,-490
29.821,90,948,-219,350,-700,-490
29.821,90,948,-220,420,-770,-560
29.821,90,947,-219,350,-840,-560
29.821,90,947,-219,490,-840,-560
29.821,90,947,-218,350,-840,-560
29.821,90,946,-220,350,-770,-560
29.821,89,947,-219,420,-770,-560
29.821,91,947,-219,350,-770,-560
30.3,90,947,-220,420,-770,-560
30.3,91,947,-220,420,-840,-630
30.3,90,948,-220,420,-840,-560
30.3,90,947,-219,490,-770,-560
30.3,90,947,-220,350,-770,-560
30.3,91,947,-219,280,-700,-630
30.3,90,947,-219,350,-700,-630
30.3,90,948,-218,350,-840,-630
30.3,90,947,-218,350,-770,-560
30.3,90,947,-218,350,-770,-560
30.3,90,947,-219,350,-770,-630
30.3,89,948,-219,420,-840,-560
30.3,89,948,-218,420,-770,-560
30.3,89,947,-218,420,-770,-560
30.3,91,948,-219,420,-700,-560
30.3,91,947,-218,490,-770,-560
30.3,89,947,-218,420,-770,-560
30.3,89,948,-219,350,-840,-490
30.3,89,947,-219,490,-910,-630
30.3,90,948,-219,350,-770,-560
30.185,88,948,-218,350,-840,-630
30.185,90,948,-219,420,-770,-630
30.185,90,947,-220,420,-700,-560
30.185,91,947,-221,350,-770,-560
30.185,91,947,-221,420,-770,-490
30.185,90,947,-220,420,-770,-560
30.185,91,948,-221,420,-770,-630
30.185,89,947,-221,350,-840,-560
30.185,89,948,-221,420,-840,-560
30.185,90,947,-222,420,-770,-560
30.185,89,947,-221,350,-770,-560
30.185,90,948,-220,350,-840,-560
30.185,90,947,-220,350,-770,-560
30.185,89,948,-220,350,-770,-560
30.185,90,948,-220,350,-770,-560
30.185,89,947,-220,350,-770,-560
30.185,90,947,-220,280,-840,-560
30.185,90,946,-220,350,-700,-560
30.185,90,947,-220,420,-840,-560
30.185,90,948,-219,350,-840,-560
30.366,90,948,-219,350,-770,-630
30.366,89,948,-219,420,-770,-490
30.366,90,947,-220,350,-770,-560
30.366,90,948,-221,350,-770,-560
30.366,90,948,-220,350,-770,-560
30.366,90,947,-221,350,-770,-560
30.366,91,947,-220,490,-770,-630
30.366,89,947,-220,420,-770,-630
30.366,90,948,-220,350,-770,-560
30.366,89,947,-221,420,-700,-560
30.366,89,947,-221,350,-770,-560
30.366,90,947,-221,420,-770,-560
30.366,91,947,-221,420,-770,-560
30.366,91,948,-220,350,-700,-560
30.366,91,948,-221,350,-700,-560
30.366,91,948,-221,350,-840,-560
30.366,90,948,-220,420,-840,-490
30.366,90,946,-219,350,-770,-560
30.366,90,947,-220,420,-700,-630
30.366,89,946,-219,420,-840,-560
30.548,91,947,-219,350,-770,-630
30.548,90,947,-219,420,-770,-630
30.548,90,947,-219,420,-840,-630
30.548,90,947,-220,350,-770,-630
30.548,89,946,-219,350,-770,-560
30.548,90,947,-219,350,-770,-560
30.548,89,947,-219,350,-770,-560
30.548,90,947,-220,420,-840,-560
30.548,90,948,-220,420,-770,-630
30.548,89,948,-219,350,-770,-630
30.548,91,948,-218,350,-770,-560
30.548,90,947,-220,420,-840,-490
30.548,90,947,-218,420,-840,-560
30.548,90,947,-218,350,-770,-560
30.548,90,946,-218,420,-770,-560
30.548,90,947,-219,350,-770,-630
30.548,90,947,-219,350,-770,-630
30.548,89,948,-218,350,-770,-560
30.548,89,947,-219,420,-770,-560
30.548,89,947,-218,420,-840,-560
30.730,90,947,-219,350,-770,-560
30.730,90,947,-218,280,-770,-630
30.730,90,947,-218,420,-840,-560
30.730,89,947,-217,350,-840,-560
30.730,90,947,-218,350,-770,-560
30.730,89,947,-218,350,-770,-560
30.730,90,947,-219,420,-770,-630
30.730,89,946,-218,350,-840,-560
30.730,90,947,-219,350,-770,-560
30.730,90,947,-219,350,-840,-560
30.730,89,948,-218,350,-840,-560
30.730,91,948,-218,420,-770,-560
30.730,89,947,-219,350,-770,-560
30.730,89,948,-219,350,-770,-560
30.730,90,947,-219,420,-840,-560
30.730,89,947,-218,350,-840,-560
30.730,91,947,-217,420,-840,-560
30.730,90,947,-218,420,-770,-560
30.730,90,947,-218,420,-840,-630
30.730,90,947,-218,420,-770,-560
30.912,89,948,-218,420,-840,-560
30.912,90,947,-218,350,-840,-560
30.912,89,947,-219,350,-840,-560
30.912,90,947,-218,350,-770,-560
30.912,90,948,-218,350,-770,-560
30.912,89,947,-218,420,-840,-560
30.912,89,947,-217,350,-700,-630
30.912,88,947,-216,350,-840,-560
30.912,89,948,-218,420,-770,-560
30.912,89,948,-217,420,-700,-490
30.912,90,948,-218,420,-840,-560
30.912,90,948,-218,350,-770,-560
30.912,90,947,-218,350,-840,-630
30.912,91,948,-218,350,-770,-630
30.912,90,947,-218,420,-840,-630
30.912,89,947,-218,420,-840,-560
30.912,90,947,-218,350,-770,-560
30.912,90,948,-219,420,-840,-560
30.912,89,948,-219,350,-770,-560
30.912,90,948,-218,280,-840,-560
31.93,90,948,-219,350,-770,-560
31.93,90,948,-219,350,-770,-560
31.93,89,947,-218,420,-770,-560
31.93,91,946,-218,490,-770,-560
31.93,89,947,-218,420,-770,-560
31.93,90,948,-218,350,-840,-560
31.93,90,948,-219,350,-770,-560
31.93,90,948,-219,350,-840,-490
31.93,90,947,-219,350,-770,-490
31.93,89,946,-219,420,-770,-630
31.93,90,947,-219,350,-840,-630
31.93,90,947,-219,350,-770,-630
31.93,90,947,-219,420,-700,-630
31.93,90,947,-219,420,-770,-560
31.93,89,947,-219,420,-770,-560
31.93,90,947,-220,350,-770,-560
31.93,90,947,-220,420,-770,-560
31.93,89,947,-219,420,-840,-560
31.93,90,947,-219,280,-840,-490
31.93,89,948,-220,350,-840,-490
31.275,90,947,-220,350,-770,-560
31.275,91,948,-219,350,-770,-560
31.275,90,947,-220,350,-840,-560
31.275,90,948,-220,420,-770,-560
31.275,90,948,-221,420,-770,-560
31.275,89,947,-221,420,-840,-560
31.275,91,947,-221,350,-840,-560
31.275,89,947,-221,350,-840,-560
31.275,89,948,-220,420,-770,-560
31.275,90,947,-220,420,-840,-560
31.275,89,947,-219,350,-840,-630
31.275,90,947,-219,420,-770,-560
31.275,90,947,-220,490,-770,-560
31.275,90,947,-219,420,-770,-560
31.275,90,947,-219,350,-840,-630
31.275,90,948,-219,350,-840,-560
31.275,90,947,-218,350,-770,-560
31.275,89,947,-219,350,-770,-630
31.275,90,947,-220,350,-700,-630
31.275,90,947,-220,420,-770,-560
31.457,89,947,-222,420,-770,-630
31.457,89,947,-220,350,-700,-630
31.457,89,947,-221,420,-770,-630
31.457,90,947,-220,420,-770,-490
31.457,90,947,-220,350,-840,-630
31.457,89,948,-220,420,-770,-630
31.457,88,947,-220,350,-770,-560
31.457,89,947,-220,420,-840,-560
31.457,90,947,-219,280,-770,-560
31.457,90,948,-220,350,-770,-560
31.457,91,948,-221,350,-700,-560
31.457,90,947,-221,420,-770,-630
31.457,90,947,-221,350,-770,-630
31.457,90,947,-221,350,-770,-560
31.457,90,948,-221,350,-770,-560
31.457,90,947,-221,420,-770,-630
31.457,89,947,-220,420,-770,-560
31.457,89,947,-220,350,-700,-630
31.457,90,948,-219,420,-770,-630
31.457,90,948,-221,420,-840,-560
31.639,89,947,-221,420,-840,-560
31.639,90,947,-221,420,-770,-560
31.639,90,948,-220,350,-770,-560
31.639,91,948,-221,420,-770,-560
31.639,90,948,-220,420,-770,-630
31.639,89,948,-220,350,-770,-560
31.639,90,946,-220,420,-770,-560
31.639,90,947,-219,350,-840,-560
31.639,91,947,-221,420,-840,-560
31.639,90,947,-221,350,-840,-630
31.639,90,947,-221,350,-770,-630
31.639,90,947,-222,420,-770,-560
31.639,90,948,-221,350,-770,-630
31.639,91,947,-222,350,-770,-560
31.639,90,947,-221,420,-770,-560
31.639,90,947,-222,420,-770,-560
31.639,90,946,-222,490,-770,-560
31.639,90,948,-222,420,-700,-630
31.639,90,948,-222,420,-770,-560
31.639,90,947,-223,420,-840,-560
31.820,90,947,-223,350,-770,-560
31.820,90,947,-222,420,-770,-630
31.820,90,948,-222,420,-700,-630
31.820,90,947,-223,350,-700,-560
31.820,90,947,-223,350,-770,-490
31.820,90,947,-222,420,-840,-560
31.820,90,946,-222,350,-770,-560
31.820,90,947,-221,420,-840,-490
31.820,90,946,-221,420,-770,-490
31.820,90,947,-221,350,-770,-560
31.820,89,948,-222,420,-770,-630
31.820,90,947,-222,350,-700,-630
31.820,89,948,-222,350,-770,-630
31.820,90,947,-222,350,-770,-630
31.820,89,947,-221,420,-770,-630
31.820,90,947,-221,350,-840,-490
31.820,89,946,-220,420,-770,-560
31.820,89,946,-219,420,-770,-560
31.820,90,947,-220,420,-770,-560
31.820,90,946,-220,350,-770,-560
32.1,90,947,-219,350,-770,-560
32.1,90,947,-219,350,-770,-630
32.1,90,947,-220,350,-770,-630
32.1,90,947,-219,420,-770,-490
32.1,90,946,-220,420,-770,-560
32.1,90,948,-220,350,-770,-630
32.1,89,947,-220,350,-770,-630
32.1,89,947,-220,420,-840,-630
32.1,90,947,-220,420,-770,-560
32.1,90,947,-220,350,-700,-630
32.1,90,947,-219,350,-840,-560
32.1,90,948,-220,420,-840,-630
32.1,90,947,-220,420,-700,-630
32.1,90,947,-220,350,-840,-560
32.1,90,947,-220,350,-840,-560
32.1,91,948,-220,420,-770,-630
32.1,90,947,-220,420,-770,-630
32.1,90,947,-219,350,-840,-630
32.1,90,947,-219,350,-770,-560
32.1,90,947,-221,350,-770,-490
32.183,89,947,-220,350,-770,-560
32.183,90,947,-220,420,-770,-560
32.183,90,948,-219,420,-840,-490
32.183,89,947,-219,490,-770,-560
32.183,89,947,-219,420,-840,-560
32.183,90,948,-219,420,-770,-630
32.183,90,947,-220,350,-770,-560
32.183,90,948,-220,420,-770,-560
32.183,90,947,-219,420,-770,-560
32.183,90,948,-218,350,-770,-560
32.183,89,947,-218,350,-770,-560
32.183,90,947,-219,350,-770,-630
32.183,90,947,-219,350,-770,-630
32.183,89,948,-219,420,-770,-630
32.183,90,947,-220,420,-770,-560
32.183,91,947,-219,420,-770,-560
32.183,91,946,-219,420,-840,-560
32.183,91,947,-219,420,-770,-560
32.183,89,948,-220,420,-770,-560
32.183,89,948,-219,350,-770,-560
32.365,89,947,-219,350,-840,-630
32.365,90,947,-219,350,-770,-560
32.365,90,947,-220,350,-770,-560
32.365,90,947,-219,350,-770,-560
32.365,90,947,-219,350,-840,-560
32.365,90,948,-219,350,-770,-630
32.365,90,947,-218,420,-770,-560
32.365,90,948,-218,420,-770,-560
32.365,89,947,-218,350,-840,-560
32.365,90,947,-219,350,-840,-560
32.365,89,947,-218,420,-840,-490
32.365,91,947,-219,420,-770,-560
32.365,90,947,-219,420,-770,-560
32.365,90,947,-220,420,-770,-630
32.365,89,947,-219,350,-840,-560
32.365,90,947,-219,420,-840,-560
32.365,89,947,-219,420,-770,-560
32.365,90,948,-218,420,-770,-630
32.365,90,947,-219,420,-770,-560
32.365,90,947,-219,350,-770,-560
32.547,90,947,-219,350,-700,-560
32.547,90,947,-218,420,-770,-560
32.547,91,947,-219,350,-770,-560
32.547,89,948,-219,350,-770,-560
32.547,89,948,-219,420,-770,-560
32.547,90,948,-220,350,-770,-560
32.547,90,948,-219,350,-770,-630
32.547,90,947,-220,420,-770,-560
32.547,90,946,-220,350,-840,-560
32.547,89,947,-220,420,-770,-560
32.547,89,948,-221,420,-770,-560
32.547,90,947,-222,420,-770,-630
32.547,89,947,-222,420,-770,-560
32.547,90,947,-221,350,-840,-630
32.547,89,947,-221,420,-840,-630
32.547,91,948,-219,420,-770,-560
32.547,90,947,-220,420,-770,-560
32.547,89,948,-219,420,-840,-560
32.547,90,947,-220,420,-770,-560
32.547,89,947,-220,350,-770,-560
32.728,89,947,-220,420,-770,-630
32.728,89,947,-220,350,-770,-560
32.728,90,947,-221,350,-700,-490
32.728,91,947,-221,420,-840,-560
32.728,90,947,-221,420,-840,-560
32.728,91,948,-221,350,-840,-630
32.728,90,947,-220,350,-840,-630
32.728,89,948,-220,350,-770,-560
32.728,90,947,-220,350,-840,-560
32.728,89,947,-220,350,-840,-560
32.728,90,948,-221,350,-770,-490
32.728,90,947,-221,490,-770,-560
32.728,90,946,-221,420,-770,-560
32.728,90,947,-221,350,-770,-560
32.728,90,947,-222,350,-770,-630
32.728,90,947,-221,350,-770,-560
32.728,90,947,-220,350,-770,-560
32.728,89,947,-220,350,-840,-490
32.728,91,947,-221,350,-840,-630
32.728,90,947,-221,420,-910,-630
32.909,90,947,-221,350,-770,-560
32.909,89,947,-222,350,-770,-560
32.909,90,946,-221,350,-770,-560
32.909,90,947,-221,420,-770,-560
32.909,90,947,-221,350,-770,-560
32.909,90,948,-222,420,-770,-560
32.909,90,947,-222,420,-840,-630
32.909,90,947,-222,420,-770,-560
32.909,89,947,-222,350,-770,-560
32.909,89,946,-221,420,-840,-560
32.909,90,946,-222,350,-840,-490
32.909,90,947,-222,350,-770,-560
32.909,90,947,-221,350,-770,-560
32.909,91,947,-221,420,-770,-560
32.909,90,947,-221,350,-840,-630
32.909,91,947,-220,420,-840,-560
32.909,91,947,-221,420,-770,-560
32.909,90,948,-219,350,-840,-560
32.909,90,947,-221,350,-770,-560
32.909,90,947,-220,350,-840,-630
33.91,90,946,-221,350,-770,-560
33.91,90,948,-220,420,-840,-630
33.91,91,947,-221,420,-770,-560
33.91,89,947,-220,350,-840,-630
33.91,90,947,-220,280,-770,-630
33.91,90,946,-219,420,-770,-630
33.91,89,947,-220,350,-840,-560
33.91,90,947,-220,350,-770,-560
33.91,90,947,-220,420,-840,-560
33.91,90,948,-220,490,-770,-560
33.91,90,948,-220,420,-840,-630
33.91,91,948,-219,490,-770,-560
33.91,90,947,-220,350,-770,-630
33.91,90,947,-220,420,-770,-560
33.91,90,948,-221,420,-770,-560
33.91,90,948,-220,350,-770,-560
33.91,90,947,-221,350,-770,-560
33.91,90,947,-220,350,-770,-560
33.91,90,947,-221,350,-770,-630
33.91,90,947,-220,420,-770,-630
33.273,92,947,-221,420,-840,-630
33.273,90,947,-220,350,-770,-560
33.273,90,947,-219,350,-840,-560
33.273,90,948,-220,420,-840,-560
33.273,89,947,-221,420,-770,-560
33.273,89,947,-220,350,-840,-630
33.273,90,946,-220,350,-770,-630
33.273,91,947,-220,420,-770,-560
33.273,89,947,-219,420,-840,-490
33.273,90,948,-219,420,-770,-490
33.273,90,947,-218,420,-770,-560
33.273,90,947,-219,350,-770,-630
33.273,90,947,-219,420,-770,-560
33.273,90,947,-220,350,-770,-560
33.273,89,947,-219,350,-770,-630
33.273,90,948,-220,350,-770,-630
33.273,89,947,-220,420,-770,-630
33.273,89,948,-219,420,-770,-560
33.273,90,948,-219,420,-700,-560
33.273,90,948,-220,350,-770,-560
33.455,90,948,-219,420,-770,-560
33.455,89,947,-219,350,-770,-560
33.455,89,947,-220,420,-700,-560
33.455,90,947,-220,420,-770,-560
33.455,89,946,-219,350,-770,-630
33.455,90,947,-219,350,-770,-630
33.455,90,947,-220,350,-770,-560
33.455,90,947,-220,350,-770,-560
33.455,90,948,-220,420,-770,-560
33.455,89,948,-219,420,-700,-630
33.455,90,947,-219,350,-700,-630
33.455,90,948,-219,350,-840,-630
33.455,89,948,-220,490,-770,-560
33.455,89,946,-220,420,-770,-560
33.455,90,948,-219,350,-700,-560
33.455,91,947,-219,420,-770,-490
33.455,89,948,-218,490,-770,-560
33.455,90,947,-219,420,-840,-560
33.455,90,948,-219,420,-840,-560
33.455,90,947,-219,420,-770,-560
33.636,89,947,-219,420,-770,-630
33.636,90,946,-219,350,-770,-560
33.636,90,947,-219,350,-770,-490
33.636,90,947,-220,350,-700,-560
33.636,90,948,-219,420,-840,-630
33.636,91,947,-219,420,-840,-560
33.636,91,948,-219,350,-840,-560
33.636,89,947,-219,420,-840,-560
33.636,90,948,-219,350,-770,-560
33.636,90,947,-219,420,-770,-560
33.636,90,947,-218,350,-770,-560
33.636,90,948,-219,420,-770,-630
33.636,90,947,-219,350,-770,-630
33.636,91,947,-218,350,-840,-560
33.636,90,946,-219,350,-770,-560
33.636,89,947,-218,420,-770,-630
33.636,89,947,-219,420,-770,-560
33.636,89,947,-219,350,-770,-560
33.636,89,948,-218,420,-770,-560
33.636,89,948,-219,420,-770,-560
33.818,90,947,-219,420,-770,-560
33.818,90,947,-218,420,-770,-560
33.818,89,947,-219,350,-770,-560
33.818,90,947,-219,350,-770,-560
33.818,90,948,-218,350,-770,-630
33.818,91,948,-218,350,-700,-630
33.818,91,948,-218,420,-770,-630
33.818,90,947,-219,420,-770,-630
33.818,89,947,-219,350,-770,-630
33.818,90,947,-219,420,-840,-630
33.818,90,947,-220,350,-840,-560
33.818,90,948,-219,350,-770,-560
33.818,90,947,-220,350,-840,-560
33.818,92,948,-219,350,-770,-560
33.818,90,947,-219,420,-840,-490
33.818,89,948,-219,350,-770,-560
33.818,90,947,-219,420,-770,-630
33.818,90,947,-218,420,-840,-630
33.818,90,946,-219,350,-770,-560
33.818,90,947,-220,350,-770,-560
34.0,89,948,-218,420,-700,-560
34.0,90,947,-219,420,-700,-560
34.0,90,948,-218,420,-770,-630
34.0,90,947,-219,420,-840,-490
34.0,90,948,-219,280,-770,-560
34.0,90,947,-218,420,-840,-560
34.0,90,947,-218,350,-770,-630
34.0,90,947,-218,350,-840,-560
34.0,91,947,-218,350,-840,-560
34.0,90,947,-219,420,-840,-630
34.0,90,947,-219,420,-770,-630
34.0,90,947,-219,350,-770,-630
34.0,89,947,-219,350,-770,-630
34.0,90,947,-219,420,-770,-560
34.0,88,947,-218,490,-840,-560
34.0,89,948,-219,350,-770,-560
34.0,90,948,-219,350,-770,-490
34.0,90,947,-218,350,-770,-560
34.0,90,948,-219,350,-840,-560
34.0,90,947,-218,420,-770,-560
34.182,89,947,-218,420,-770,-560
34.182,91,947,-219,420,-770,-560
34.182,89,947,-219,420,-700,-560
34.182,90,947,-219,350,-700,-560
34.182,90,948,-219,490,-770,-560
34.182,90,948,-218,420,-770,-630
34.182,91,946,-218,420,-840,-630
34.182,89,947,-219,420,-770,-630
34.182,89,947,-219,350,-770,-560
